idx,pid,cond,shj_cond,bal_cond,phase,block_num,trial_num,file_name,var_9,var_10,var_11,var_12,var_13,var_14,var_15,var_16,var_17,var_18,var_19,switch_count,eg_type,test_acc,test_rt,train_cond,trial_attempts
1,4233,1,2,9,classify_train,1,1,aaa.png,,0,0,1,NA,NA,,Lape,Lape,3.178826941,1,NA,full,NA,NA,classify,1
2,4233,1,2,9,classify_train,1,2,aab.png,,0,0,0,NA,NA,,Lape,Tannet,1.11286337,0,NA,full,NA,NA,classify,1
3,4233,1,2,9,classify_train,1,2,aab.png,,0,0,0,NA,NA,,Lape,Lape,4.128391688,1,NA,full,NA,NA,classify,2
4,4233,1,2,9,classify_train,1,3,aba.png,,1,0,1,NA,NA,,Tannet,Tannet,2.057550523,1,NA,full,NA,NA,classify,1
5,4233,1,2,9,classify_train,1,4,baa.png,,0,1,1,NA,NA,,Tannet,Lape,3.074997368,0,NA,full,NA,NA,classify,1
6,4233,1,2,9,classify_train,1,4,baa.png,,0,1,1,NA,NA,,Tannet,Tannet,0.601395906,1,NA,full,NA,NA,classify,2
7,4233,1,2,9,classify_train,1,5,bba.png,,1,1,1,NA,NA,,Lape,Tannet,2.753384984,0,NA,full,NA,NA,classify,1
8,4233,1,2,9,classify_train,1,5,bba.png,,1,1,1,NA,NA,,Lape,Lape,1.699730115,1,NA,full,NA,NA,classify,2
9,4233,1,2,9,classify_train,1,6,abb.png,,1,0,0,NA,NA,,Tannet,Lape,1.89367088,0,NA,full,NA,NA,classify,1
10,4233,1,2,9,classify_train,1,6,abb.png,,1,0,0,NA,NA,,Tannet,Tannet,1.317297932,1,NA,full,NA,NA,classify,2
11,4233,1,2,9,classify_train,1,7,bab.png,,0,1,0,NA,NA,,Tannet,Lape,3.965890935,0,NA,full,NA,NA,classify,1
12,4233,1,2,9,classify_train,1,7,bab.png,,0,1,0,NA,NA,,Tannet,Tannet,5.561031019,1,NA,full,NA,NA,classify,2
13,4233,1,2,9,classify_train,1,8,bbb.png,,1,1,0,NA,NA,,Lape,Tannet,1.429137315,0,NA,full,NA,NA,classify,1
14,4233,1,2,9,classify_train,1,8,bbb.png,,1,1,0,NA,NA,,Lape,Lape,0.4394285,1,NA,full,NA,NA,classify,2
15,4233,1,2,9,classify_train,2,1,bba.png,,1,1,1,NA,NA,,Lape,Lape,2.097006965,1,NA,full,NA,NA,classify,1
16,4233,1,2,9,classify_train,2,2,bab.png,,0,1,0,NA,NA,,Tannet,Tannet,3.056881107,1,NA,full,NA,NA,classify,1
17,4233,1,2,9,classify_train,2,3,aab.png,,0,0,0,NA,NA,,Lape,Lape,1.331256998,1,NA,full,NA,NA,classify,1
18,4233,1,2,9,classify_train,2,4,aba.png,,1,0,1,NA,NA,,Tannet,Lape,0.806844524,0,NA,full,NA,NA,classify,1
19,4233,1,2,9,classify_train,2,4,aba.png,,1,0,1,NA,NA,,Tannet,Tannet,1.044874668,1,NA,full,NA,NA,classify,2
20,4233,1,2,9,classify_train,2,5,aaa.png,,0,0,1,NA,NA,,Lape,Lape,1.082360275,1,NA,full,NA,NA,classify,1
21,4233,1,2,9,classify_train,2,6,baa.png,,0,1,1,NA,NA,,Tannet,Tannet,4.401518467,1,NA,full,NA,NA,classify,1
22,4233,1,2,9,classify_train,2,7,bbb.png,,1,1,0,NA,NA,,Lape,Lape,0.715478261,1,NA,full,NA,NA,classify,1
23,4233,1,2,9,classify_train,2,8,abb.png,,1,0,0,NA,NA,,Tannet,Lape,5.195506706,0,NA,full,NA,NA,classify,1
24,4233,1,2,9,classify_train,2,8,abb.png,,1,0,0,NA,NA,,Tannet,Tannet,0.122282858,1,NA,full,NA,NA,classify,2
25,4233,1,2,9,classify_train,3,1,aab.png,,0,0,0,NA,NA,,Lape,Lape,0.685057933,1,NA,full,NA,NA,classify,1
26,4233,1,2,9,classify_train,3,2,aaa.png,,0,0,1,NA,NA,,Lape,Lape,13.89783834,1,NA,full,NA,NA,classify,1
27,4233,1,2,9,classify_train,3,3,abb.png,,1,0,0,NA,NA,,Tannet,Lape,1.123314129,0,NA,full,NA,NA,classify,1
28,4233,1,2,9,classify_train,3,3,abb.png,,1,0,0,NA,NA,,Tannet,Tannet,0.755619348,1,NA,full,NA,NA,classify,2
29,4233,1,2,9,classify_train,3,4,baa.png,,0,1,1,NA,NA,,Tannet,Lape,2.995507766,0,NA,full,NA,NA,classify,1
30,4233,1,2,9,classify_train,3,4,baa.png,,0,1,1,NA,NA,,Tannet,Tannet,0.002809757,1,NA,full,NA,NA,classify,2
31,4233,1,2,9,classify_train,3,5,bba.png,,1,1,1,NA,NA,,Lape,Lape,2.107024359,1,NA,full,NA,NA,classify,1
32,4233,1,2,9,classify_train,3,6,bbb.png,,1,1,0,NA,NA,,Lape,Tannet,1.752614594,0,NA,full,NA,NA,classify,1
33,4233,1,2,9,classify_train,3,6,bbb.png,,1,1,0,NA,NA,,Lape,Lape,0.336666285,1,NA,full,NA,NA,classify,2
34,4233,1,2,9,classify_train,3,7,bab.png,,0,1,0,NA,NA,,Tannet,Tannet,0.576593106,1,NA,full,NA,NA,classify,1
35,4233,1,2,9,classify_train,3,8,aba.png,,1,0,1,NA,NA,,Tannet,Lape,1.02823132,0,NA,full,NA,NA,classify,1
36,4233,1,2,9,classify_train,3,8,aba.png,,1,0,1,NA,NA,,Tannet,Tannet,0.189814027,1,NA,full,NA,NA,classify,2
37,4233,1,2,9,classify_train,4,1,bbb.png,,1,1,0,NA,NA,,Lape,Lape,2.423743257,1,NA,full,NA,NA,classify,1
38,4233,1,2,9,classify_train,4,2,aba.png,,1,0,1,NA,NA,,Tannet,Tannet,0.741649689,1,NA,full,NA,NA,classify,1
39,4233,1,2,9,classify_train,4,3,baa.png,,0,1,1,NA,NA,,Tannet,Tannet,1.054417976,1,NA,full,NA,NA,classify,1
40,4233,1,2,9,classify_train,4,4,aaa.png,,0,0,1,NA,NA,,Lape,Lape,0.714361907,1,NA,full,NA,NA,classify,1
41,4233,1,2,9,classify_train,4,5,bab.png,,0,1,0,NA,NA,,Tannet,Tannet,2.882367956,1,NA,full,NA,NA,classify,1
42,4233,1,2,9,classify_train,4,6,bba.png,,1,1,1,NA,NA,,Lape,Lape,2.895514917,1,NA,full,NA,NA,classify,1
43,4233,1,2,9,classify_train,4,7,abb.png,,1,0,0,NA,NA,,Tannet,Lape,4.890919059,0,NA,full,NA,NA,classify,1
44,4233,1,2,9,classify_train,4,7,abb.png,,1,0,0,NA,NA,,Tannet,Tannet,0.059501825,1,NA,full,NA,NA,classify,2
45,4233,1,2,9,classify_train,4,8,aab.png,,0,0,0,NA,NA,,Lape,Lape,0.395052749,1,NA,full,NA,NA,classify,1
46,4233,1,2,9,classify_train,5,1,bba.png,,1,1,1,NA,NA,,Lape,Lape,1.696593596,1,NA,full,NA,NA,classify,1
47,4233,1,2,9,classify_train,5,2,aba.png,,1,0,1,NA,NA,,Tannet,Tannet,2.852937846,1,NA,full,NA,NA,classify,1
48,4233,1,2,9,classify_train,5,3,aaa.png,,0,0,1,NA,NA,,Lape,Lape,0.880925171,1,NA,full,NA,NA,classify,1
49,4233,1,2,9,classify_train,5,4,bbb.png,,1,1,0,NA,NA,,Lape,Lape,6.207908107,1,NA,full,NA,NA,classify,1
50,4233,1,2,9,classify_train,5,5,aab.png,,0,0,0,NA,NA,,Lape,Lape,6.09066043,1,NA,full,NA,NA,classify,1
51,4233,1,2,9,classify_train,5,6,baa.png,,0,1,1,NA,NA,,Tannet,Tannet,3.491082407,1,NA,full,NA,NA,classify,1
52,4233,1,2,9,classify_train,5,7,abb.png,,1,0,0,NA,NA,,Tannet,Tannet,3.535377048,1,NA,full,NA,NA,classify,1
53,4233,1,2,9,classify_train,5,8,bab.png,,0,1,0,NA,NA,,Tannet,Lape,2.077753161,0,NA,full,NA,NA,classify,1
54,4233,1,2,9,classify_train,5,8,bab.png,,0,1,0,NA,NA,,Tannet,Tannet,1.109842062,1,NA,full,NA,NA,classify,2
55,4233,1,2,9,classify_train,6,1,aab.png,,0,0,0,NA,NA,,Lape,Lape,0.255748133,1,NA,full,NA,NA,classify,1
56,4233,1,2,9,classify_train,6,2,bba.png,,1,1,1,NA,NA,,Lape,Lape,3.036080563,1,NA,full,NA,NA,classify,1
57,4233,1,2,9,classify_train,6,3,bbb.png,,1,1,0,NA,NA,,Lape,Lape,0.972066971,1,NA,full,NA,NA,classify,1
58,4233,1,2,9,classify_train,6,4,aba.png,,1,0,1,NA,NA,,Tannet,Tannet,0.515685906,1,NA,full,NA,NA,classify,1
59,4233,1,2,9,classify_train,6,5,baa.png,,0,1,1,NA,NA,,Tannet,Tannet,2.344358934,1,NA,full,NA,NA,classify,1
60,4233,1,2,9,classify_train,6,6,aaa.png,,0,0,1,NA,NA,,Lape,Lape,0.72112724,1,NA,full,NA,NA,classify,1
61,4233,1,2,9,classify_train,6,7,bab.png,,0,1,0,NA,NA,,Tannet,Tannet,6.676615089,1,NA,full,NA,NA,classify,1
62,4233,1,2,9,classify_train,6,8,abb.png,,1,0,0,NA,NA,,Tannet,Tannet,0.71744711,1,NA,full,NA,NA,classify,1
63,4233,1,2,9,classify_train,7,1,bba.png,,1,1,1,NA,NA,,Lape,Lape,1.873783416,1,NA,full,NA,NA,classify,1
64,4233,1,2,9,classify_train,7,2,bab.png,,0,1,0,NA,NA,,Tannet,Tannet,2.030546795,1,NA,full,NA,NA,classify,1
65,4233,1,2,9,classify_train,7,3,bbb.png,,1,1,0,NA,NA,,Lape,Lape,4.974111965,1,NA,full,NA,NA,classify,1
66,4233,1,2,9,classify_train,7,4,aba.png,,1,0,1,NA,NA,,Tannet,Tannet,3.546822329,1,NA,full,NA,NA,classify,1
67,4233,1,2,9,classify_train,7,5,baa.png,,0,1,1,NA,NA,,Tannet,Tannet,4.401132775,1,NA,full,NA,NA,classify,1
68,4233,1,2,9,classify_train,7,6,aab.png,,0,0,0,NA,NA,,Lape,Lape,1.655561941,1,NA,full,NA,NA,classify,1
69,4233,1,2,9,classify_train,7,7,aaa.png,,0,0,1,NA,NA,,Lape,Lape,1.036808908,1,NA,full,NA,NA,classify,1
70,4233,1,2,9,classify_train,7,8,abb.png,,1,0,0,NA,NA,,Tannet,Tannet,7.69336173,1,NA,full,NA,NA,classify,1
71,4233,1,2,9,classify_train,8,1,bab.png,,0,1,0,NA,NA,,Tannet,Tannet,0.894665733,1,NA,full,NA,NA,classify,1
72,4233,1,2,9,classify_train,8,2,baa.png,,0,1,1,NA,NA,,Tannet,Tannet,0.337747546,1,NA,full,NA,NA,classify,1
73,4233,1,2,9,classify_train,8,3,aba.png,,1,0,1,NA,NA,,Tannet,Tannet,3.520550589,1,NA,full,NA,NA,classify,1
74,4233,1,2,9,classify_train,8,4,aab.png,,0,0,0,NA,NA,,Lape,Lape,0.967369807,1,NA,full,NA,NA,classify,1
75,4233,1,2,9,classify_train,8,5,bba.png,,1,1,1,NA,NA,,Lape,Lape,1.076112398,1,NA,full,NA,NA,classify,1
76,4233,1,2,9,classify_train,8,6,bbb.png,,1,1,0,NA,NA,,Lape,Lape,5.711985515,1,NA,full,NA,NA,classify,1
77,4233,1,2,9,classify_train,8,7,abb.png,,1,0,0,NA,NA,,Tannet,Tannet,0.726435221,1,NA,full,NA,NA,classify,1
78,4233,1,2,9,classify_train,8,8,aaa.png,,0,0,1,NA,NA,,Lape,Lape,0.471140648,1,NA,full,NA,NA,classify,1
79,4233,1,2,9,classify_train,9,1,aba.png,,1,0,1,NA,NA,,Tannet,Tannet,0.580384142,1,NA,full,NA,NA,classify,1
80,4233,1,2,9,classify_train,9,2,aaa.png,,0,0,1,NA,NA,,Lape,Lape,1.327902306,1,NA,full,NA,NA,classify,1
81,4233,1,2,9,classify_train,9,3,bba.png,,1,1,1,NA,NA,,Lape,Lape,7.165744537,1,NA,full,NA,NA,classify,1
82,4233,1,2,9,classify_train,9,4,bab.png,,0,1,0,NA,NA,,Tannet,Tannet,0.952974065,1,NA,full,NA,NA,classify,1
83,4233,1,2,9,classify_train,9,5,aab.png,,0,0,0,NA,NA,,Lape,Lape,0.412623744,1,NA,full,NA,NA,classify,1
84,4233,1,2,9,classify_train,9,6,abb.png,,1,0,0,NA,NA,,Tannet,Tannet,0.274150766,1,NA,full,NA,NA,classify,1
85,4233,1,2,9,classify_train,9,7,bbb.png,,1,1,0,NA,NA,,Lape,Lape,1.197359683,1,NA,full,NA,NA,classify,1
86,4233,1,2,9,classify_train,9,8,baa.png,,0,1,1,NA,NA,,Tannet,Tannet,0.968551712,1,NA,full,NA,NA,classify,1
87,4233,1,2,9,classify_train,10,1,bbb.png,,1,1,0,NA,NA,,Lape,Lape,0.557699171,1,NA,full,NA,NA,classify,1
88,4233,1,2,9,classify_train,10,2,aaa.png,,0,0,1,NA,NA,,Lape,Lape,0.359269814,1,NA,full,NA,NA,classify,1
89,4233,1,2,9,classify_train,10,3,abb.png,,1,0,0,NA,NA,,Tannet,Tannet,0.253282353,1,NA,full,NA,NA,classify,1
90,4233,1,2,9,classify_train,10,4,aba.png,,1,0,1,NA,NA,,Tannet,Tannet,0.480062214,1,NA,full,NA,NA,classify,1
91,4233,1,2,9,classify_train,10,5,baa.png,,0,1,1,NA,NA,,Tannet,Tannet,1.611207709,1,NA,full,NA,NA,classify,1
92,4233,1,2,9,classify_train,10,6,aab.png,,0,0,0,NA,NA,,Lape,Lape,0.777129367,1,NA,full,NA,NA,classify,1
93,4233,1,2,9,classify_train,10,7,bba.png,,1,1,1,NA,NA,,Lape,Lape,1.87870438,1,NA,full,NA,NA,classify,1
94,4233,1,2,9,classify_train,10,8,bab.png,,0,1,0,NA,NA,,Tannet,Tannet,0.281440508,1,NA,full,NA,NA,classify,1
95,4233,1,2,9,classify_train,11,1,bab.png,,0,1,0,NA,NA,,Tannet,Tannet,0.629430242,1,NA,full,NA,NA,classify,1
96,4233,1,2,9,classify_train,11,2,abb.png,,1,0,0,NA,NA,,Tannet,Tannet,0.41747684,1,NA,full,NA,NA,classify,1
97,4233,1,2,9,classify_train,11,3,aab.png,,0,0,0,NA,NA,,Lape,Lape,0.400172353,1,NA,full,NA,NA,classify,1
98,4233,1,2,9,classify_train,11,4,aba.png,,1,0,1,NA,NA,,Tannet,Tannet,3.461711558,1,NA,full,NA,NA,classify,1
99,4233,1,2,9,classify_train,11,5,bba.png,,1,1,1,NA,NA,,Lape,Lape,0.624952906,1,NA,full,NA,NA,classify,1
100,4233,1,2,9,classify_train,11,6,bbb.png,,1,1,0,NA,NA,,Lape,Lape,1.206935435,1,NA,full,NA,NA,classify,1
101,4233,1,2,9,classify_train,11,7,aaa.png,,0,0,1,NA,NA,,Lape,Lape,0.474865802,1,NA,full,NA,NA,classify,1
102,4233,1,2,9,classify_train,11,8,baa.png,,0,1,1,NA,NA,,Tannet,Tannet,0.73848536,1,NA,full,NA,NA,classify,1
103,4233,1,2,9,classify_train,12,1,bba.png,,1,1,1,NA,NA,,Lape,Lape,0.295678,1,NA,full,NA,NA,classify,1
104,4233,1,2,9,classify_train,12,2,abb.png,,1,0,0,NA,NA,,Tannet,Tannet,1.008470654,1,NA,full,NA,NA,classify,1
105,4233,1,2,9,classify_train,12,3,aab.png,,0,0,0,NA,NA,,Lape,Lape,0.219608309,1,NA,full,NA,NA,classify,1
106,4233,1,2,9,classify_train,12,4,bab.png,,0,1,0,NA,NA,,Tannet,Tannet,0.225595968,1,NA,full,NA,NA,classify,1
107,4233,1,2,9,classify_train,12,5,aaa.png,,0,0,1,NA,NA,,Lape,Lape,0.255976238,1,NA,full,NA,NA,classify,1
108,4233,1,2,9,classify_train,12,6,bbb.png,,1,1,0,NA,NA,,Lape,Lape,0.860296781,1,NA,full,NA,NA,classify,1
109,4233,1,2,9,classify_train,12,7,aba.png,,1,0,1,NA,NA,,Tannet,Tannet,0.402326268,1,NA,full,NA,NA,classify,1
110,4233,1,2,9,classify_train,12,8,baa.png,,0,1,1,NA,NA,,Tannet,Tannet,0.323042589,1,NA,full,NA,NA,classify,1
111,4233,1,2,9,inference_test,NA,1,b_a.png,1,1,1,1,0,0,Lape,1,1,2.147644499,1,NA,full,1,2.147644499,classify,
112,4233,1,2,9,inference_test,NA,2,b__.png,0,1,NaN,1,0,0,Tannet,0,0,5.506316739,1,NA,partial,1,5.506316739,classify,
113,4233,1,2,9,inference_test,NA,3,_ab.png,0,0,0,0,1,0,Lape,0,0,6.330999429,1,NA,full,1,6.330999429,classify,
114,4233,1,2,9,inference_test,NA,4,a_a.png,1,0,1,1,0,0,Tannet,1,1,4.083765981,1,NA,full,1,4.083765981,classify,
115,4233,1,2,9,inference_test,NA,5,a_b.png,0,0,0,1,0,0,Lape,0,0,6.767227184,1,NA,full,1,6.767227184,classify,
116,4233,1,2,9,inference_test,NA,6,_aa.png,0,1,1,0,1,0,Tannet,1,1,4.643227085,1,NA,full,1,4.643227085,classify,
117,4233,1,2,9,inference_test,NA,7,a__.png,0,0,NaN,1,0,0,Lape,0,0,1.591246086,1,NA,partial,1,1.591246086,classify,
118,4233,1,2,9,inference_test,NA,8,b__.png,1,1,NaN,1,0,0,Lape,1,1,2.025897636,1,NA,partial,1,2.025897636,classify,
119,4233,1,2,9,inference_test,NA,9,_a_.png,0,1,NaN,0,1,0,Tannet,1,1,2.717532525,1,NA,partial,1,2.717532525,classify,
120,4233,1,2,9,inference_test,NA,10,b_b.png,1,1,0,1,0,0,Lape,1,1,5.884948284,1,NA,full,1,5.884948284,classify,
121,4233,1,2,9,inference_test,NA,11,b_b.png,0,1,0,1,0,0,Tannet,0,0,0.774662594,1,NA,full,1,0.774662594,classify,
122,4233,1,2,9,inference_test,NA,12,b_a.png,0,1,1,1,0,0,Tannet,0,0,5.450911193,1,NA,full,1,5.450911193,classify,
123,4233,1,2,9,inference_test,NA,13,_aa.png,0,0,1,0,1,0,Lape,0,0,0.712109003,1,NA,full,1,0.712109003,classify,
124,4233,1,2,9,inference_test,NA,14,_b_.png,1,0,NaN,0,1,0,Tannet,0,0,1.291299984,1,NA,partial,1,1.291299984,classify,
125,4233,1,2,9,inference_test,NA,15,_a_.png,0,0,NaN,0,1,0,Lape,0,0,1.016824111,1,NA,partial,1,1.016824111,classify,
126,4233,1,2,9,inference_test,NA,16,_ab.png,0,1,0,0,1,0,Tannet,1,1,0.876843458,1,NA,full,1,0.876843458,classify,
127,4233,1,2,9,inference_test,NA,17,_ba.png,1,0,1,0,1,0,Tannet,0,0,2.51317775,1,NA,full,1,2.51317775,classify,
128,4233,1,2,9,inference_test,NA,18,_b_.png,1,1,NaN,0,1,0,Lape,1,1,2.133878113,1,NA,partial,1,2.133878113,classify,
129,4233,1,2,9,inference_test,NA,19,_ba.png,1,1,1,0,1,0,Lape,1,1,6.7678039,1,NA,full,1,6.7678039,classify,
130,4233,1,2,9,inference_test,NA,20,_bb.png,1,0,0,0,1,0,Tannet,0,0,1.616247857,1,NA,full,1,1.616247857,classify,
131,4233,1,2,9,inference_test,NA,21,a_b.png,1,0,0,1,0,0,Tannet,1,1,2.598495769,1,NA,full,1,2.598495769,classify,
132,4233,1,2,9,inference_test,NA,22,_bb.png,1,1,0,0,1,0,Lape,1,1,2.363646837,1,NA,full,1,2.363646837,classify,
133,4233,1,2,9,inference_test,NA,23,a_a.png,0,0,1,1,0,0,Lape,0,0,3.430745964,1,NA,full,1,3.430745964,classify,
134,4233,1,2,9,inference_test,NA,24,a__.png,1,0,NaN,1,0,0,Tannet,1,1,4.867108463,1,NA,partial,1,4.867108463,classify,
135,4233,1,2,9,switch_test,12,1,aaa.png,0,1,1,0,0,1,Lape,Tannet,8.328056252,1,1,NA,full,1,8.328056252,classify,
136,4233,1,2,9,switch_test,12,2,abb.png,0,0,0,1,0,0,Tannet,Lape,1.534681809,1,1,NA,full,1,1.534681809,classify,
137,4233,1,2,9,switch_test,12,3,aba.png,0,0,1,1,0,1,Tannet,Lape,1.154852798,1,1,NA,full,1,1.154852798,classify,
138,4233,1,2,9,switch_test,12,4,bbb.png,1,0,0,1,1,0,Lape,Tannet,0.952402976,1,1,NA,full,1,0.952402976,classify,
139,4233,1,2,9,switch_test,12,5,aab.png,0,1,0,0,0,0,Lape,Tannet,1.948328547,1,1,NA,full,1,1.948328547,classify,
140,4233,1,2,9,switch_test,12,6,bba.png,0,1,1,1,1,1,Lape,Tannet,0.416304205,1,1,NA,full,1,0.416304205,classify,
141,4233,1,2,9,switch_test,12,7,bab.png,0,0,0,0,1,0,Tannet,Lape,0.549790336,1,1,NA,full,1,0.549790336,classify,
142,4233,1,2,9,switch_test,12,8,baa.png,1,1,1,0,1,1,Tannet,Lape,0.290929521,1,1,NA,full,1,0.290929521,classify,
143,4233,1,2,9,classify_test,NA,1,ab_.png,1,0,NaN,NA,NA,NA,Tannet,Tannet,4.924670242,1,NA,NA,partial,1,4.924670242,classify,
144,4233,1,2,9,classify_test,NA,2,aab.png,0,0,0,NA,NA,NA,Lape,Lape,0.797817348,1,NA,NA,full,1,0.797817348,classify,
145,4233,1,2,9,classify_test,NA,3,baa.png,0,1,1,NA,NA,NA,Tannet,Tannet,0.588992189,1,NA,NA,full,1,0.588992189,classify,
146,4233,1,2,9,classify_test,NA,4,abb.png,1,0,0,NA,NA,NA,Tannet,Tannet,0.166600674,1,NA,NA,full,1,0.166600674,classify,
147,4233,1,2,9,classify_test,NA,5,bba.png,1,1,1,NA,NA,NA,Lape,Lape,0.629012437,1,NA,NA,full,1,0.629012437,classify,
148,4233,1,2,9,classify_test,NA,6,bbb.png,1,1,0,NA,NA,NA,Lape,Lape,3.271778679,1,NA,NA,full,1,3.271778679,classify,
149,4233,1,2,9,classify_test,NA,7,aa_.png,0,0,NaN,NA,NA,NA,Lape,Lape,0.198545561,1,NA,NA,partial,1,0.198545561,classify,
150,4233,1,2,9,classify_test,NA,8,ba_.png,0,1,NaN,NA,NA,NA,Tannet,Tannet,0.277312777,1,NA,NA,partial,1,0.277312777,classify,
151,4233,1,2,9,classify_test,NA,9,aba.png,1,0,1,NA,NA,NA,Tannet,Tannet,0.438511448,1,NA,NA,full,1,0.438511448,classify,
152,4233,1,2,9,classify_test,NA,10,bab.png,0,1,0,NA,NA,NA,Tannet,Tannet,0.660079999,1,NA,NA,full,1,0.660079999,classify,
153,4233,1,2,9,classify_test,NA,11,aaa.png,0,0,1,NA,NA,NA,Lape,Lape,0.143549544,1,NA,NA,full,1,0.143549544,classify,
154,4233,1,2,9,classify_test,NA,12,bb_.png,1,1,NaN,NA,NA,NA,Lape,Lape,0.90920284,1,NA,NA,partial,1,0.90920284,classify,
155,4242,1,2,18,classify_train,1,1,aaa.png,,0,0,1,NA,NA,,Lape,Lape,4.035596875,1,NA,full,NA,NA,classify,1
156,4242,1,2,18,classify_train,1,2,aab.png,,1,0,1,NA,NA,,Tannet,Lape,2.172839943,0,NA,full,NA,NA,classify,1
157,4242,1,2,18,classify_train,1,2,aab.png,,1,0,1,NA,NA,,Tannet,Tannet,2.935618924,1,NA,full,NA,NA,classify,2
158,4242,1,2,18,classify_train,1,3,bab.png,,1,1,1,NA,NA,,Lape,Tannet,2.957825506,0,NA,full,NA,NA,classify,1
159,4242,1,2,18,classify_train,1,3,bab.png,,1,1,1,NA,NA,,Lape,Lape,1.880589139,1,NA,full,NA,NA,classify,2
160,4242,1,2,18,classify_train,1,4,aba.png,,0,0,0,NA,NA,,Lape,Lape,2.431446169,1,NA,full,NA,NA,classify,1
161,4242,1,2,18,classify_train,1,5,abb.png,,1,0,0,NA,NA,,Tannet,Lape,2.808842838,0,NA,full,NA,NA,classify,1
162,4242,1,2,18,classify_train,1,5,abb.png,,1,0,0,NA,NA,,Tannet,Tannet,0.336879491,1,NA,full,NA,NA,classify,2
163,4242,1,2,18,classify_train,1,6,bba.png,,0,1,0,NA,NA,,Tannet,Lape,2.361536954,0,NA,full,NA,NA,classify,1
164,4242,1,2,18,classify_train,1,6,bba.png,,0,1,0,NA,NA,,Tannet,Tannet,2.507138776,1,NA,full,NA,NA,classify,2
165,4242,1,2,18,classify_train,1,7,baa.png,,0,1,1,NA,NA,,Tannet,Lape,3.079828614,0,NA,full,NA,NA,classify,1
166,4242,1,2,18,classify_train,1,7,baa.png,,0,1,1,NA,NA,,Tannet,Tannet,0.9306824,1,NA,full,NA,NA,classify,2
167,4242,1,2,18,classify_train,1,8,bbb.png,,1,1,0,NA,NA,,Lape,Tannet,1.452202019,0,NA,full,NA,NA,classify,1
168,4242,1,2,18,classify_train,1,8,bbb.png,,1,1,0,NA,NA,,Lape,Lape,4.456568117,1,NA,full,NA,NA,classify,2
169,4242,1,2,18,classify_train,2,1,abb.png,,1,0,0,NA,NA,,Tannet,Tannet,1.952465878,1,NA,full,NA,NA,classify,1
170,4242,1,2,18,classify_train,2,2,bbb.png,,1,1,0,NA,NA,,Lape,Lape,2.603186974,1,NA,full,NA,NA,classify,1
171,4242,1,2,18,classify_train,2,3,aba.png,,0,0,0,NA,NA,,Lape,Tannet,0.954056651,0,NA,full,NA,NA,classify,1
172,4242,1,2,18,classify_train,2,3,aba.png,,0,0,0,NA,NA,,Lape,Lape,1.878340208,1,NA,full,NA,NA,classify,2
173,4242,1,2,18,classify_train,2,4,bab.png,,1,1,1,NA,NA,,Lape,Tannet,1.388803548,0,NA,full,NA,NA,classify,1
174,4242,1,2,18,classify_train,2,4,bab.png,,1,1,1,NA,NA,,Lape,Lape,0.000118853,1,NA,full,NA,NA,classify,2
175,4242,1,2,18,classify_train,2,5,baa.png,,0,1,1,NA,NA,,Tannet,Lape,2.938653145,0,NA,full,NA,NA,classify,1
176,4242,1,2,18,classify_train,2,5,baa.png,,0,1,1,NA,NA,,Tannet,Tannet,0.027428153,1,NA,full,NA,NA,classify,2
177,4242,1,2,18,classify_train,2,6,aaa.png,,0,0,1,NA,NA,,Lape,Lape,0.870231409,1,NA,full,NA,NA,classify,1
178,4242,1,2,18,classify_train,2,7,aab.png,,1,0,1,NA,NA,,Tannet,Tannet,1.81139635,1,NA,full,NA,NA,classify,1
179,4242,1,2,18,classify_train,2,8,bba.png,,0,1,0,NA,NA,,Tannet,Lape,1.164607657,0,NA,full,NA,NA,classify,1
180,4242,1,2,18,classify_train,2,8,bba.png,,0,1,0,NA,NA,,Tannet,Tannet,0.186932429,1,NA,full,NA,NA,classify,2
181,4242,1,2,18,classify_train,3,1,aab.png,,1,0,1,NA,NA,,Tannet,Tannet,2.690452322,1,NA,full,NA,NA,classify,1
182,4242,1,2,18,classify_train,3,2,bba.png,,0,1,0,NA,NA,,Tannet,Lape,1.650307593,0,NA,full,NA,NA,classify,1
183,4242,1,2,18,classify_train,3,2,bba.png,,0,1,0,NA,NA,,Tannet,Tannet,0.000181424,1,NA,full,NA,NA,classify,2
184,4242,1,2,18,classify_train,3,3,bab.png,,1,1,1,NA,NA,,Lape,Lape,0.805964882,1,NA,full,NA,NA,classify,1
185,4242,1,2,18,classify_train,3,4,aaa.png,,0,0,1,NA,NA,,Lape,Tannet,2.989000995,0,NA,full,NA,NA,classify,1
186,4242,1,2,18,classify_train,3,4,aaa.png,,0,0,1,NA,NA,,Lape,Lape,1.001461987,1,NA,full,NA,NA,classify,2
187,4242,1,2,18,classify_train,3,5,aba.png,,0,0,0,NA,NA,,Lape,Tannet,1.777389585,0,NA,full,NA,NA,classify,1
188,4242,1,2,18,classify_train,3,5,aba.png,,0,0,0,NA,NA,,Lape,Lape,0.494996269,1,NA,full,NA,NA,classify,2
189,4242,1,2,18,classify_train,3,6,abb.png,,1,0,0,NA,NA,,Tannet,Lape,4.907261468,0,NA,full,NA,NA,classify,1
190,4242,1,2,18,classify_train,3,6,abb.png,,1,0,0,NA,NA,,Tannet,Tannet,0.76925728,1,NA,full,NA,NA,classify,2
191,4242,1,2,18,classify_train,3,7,baa.png,,0,1,1,NA,NA,,Tannet,Tannet,1.541256779,1,NA,full,NA,NA,classify,1
192,4242,1,2,18,classify_train,3,8,bbb.png,,1,1,0,NA,NA,,Lape,Tannet,0.899161278,0,NA,full,NA,NA,classify,1
193,4242,1,2,18,classify_train,3,8,bbb.png,,1,1,0,NA,NA,,Lape,Lape,3.098339174,1,NA,full,NA,NA,classify,2
194,4242,1,2,18,classify_train,4,1,bbb.png,,1,1,0,NA,NA,,Lape,Lape,1.119513823,1,NA,full,NA,NA,classify,1
195,4242,1,2,18,classify_train,4,2,bab.png,,1,1,1,NA,NA,,Lape,Lape,2.214276492,1,NA,full,NA,NA,classify,1
196,4242,1,2,18,classify_train,4,3,abb.png,,1,0,0,NA,NA,,Tannet,Lape,1.362661254,0,NA,full,NA,NA,classify,1
197,4242,1,2,18,classify_train,4,3,abb.png,,1,0,0,NA,NA,,Tannet,Tannet,0.475355449,1,NA,full,NA,NA,classify,2
198,4242,1,2,18,classify_train,4,4,aab.png,,1,0,1,NA,NA,,Tannet,Lape,3.941586719,0,NA,full,NA,NA,classify,1
199,4242,1,2,18,classify_train,4,4,aab.png,,1,0,1,NA,NA,,Tannet,Tannet,1.263695041,1,NA,full,NA,NA,classify,2
200,4242,1,2,18,classify_train,4,5,aaa.png,,0,0,1,NA,NA,,Lape,Lape,3.463605587,1,NA,full,NA,NA,classify,1
201,4242,1,2,18,classify_train,4,6,aba.png,,0,0,0,NA,NA,,Lape,Tannet,1.231510462,0,NA,full,NA,NA,classify,1
202,4242,1,2,18,classify_train,4,6,aba.png,,0,0,0,NA,NA,,Lape,Lape,0.000122495,1,NA,full,NA,NA,classify,2
203,4242,1,2,18,classify_train,4,7,baa.png,,0,1,1,NA,NA,,Tannet,Tannet,1.793394638,1,NA,full,NA,NA,classify,1
204,4242,1,2,18,classify_train,4,8,bba.png,,0,1,0,NA,NA,,Tannet,Lape,1.055467786,0,NA,full,NA,NA,classify,1
205,4242,1,2,18,classify_train,4,8,bba.png,,0,1,0,NA,NA,,Tannet,Tannet,1.24260051,1,NA,full,NA,NA,classify,2
206,4242,1,2,18,classify_train,5,1,aab.png,,1,0,1,NA,NA,,Tannet,Lape,3.627247856,0,NA,full,NA,NA,classify,1
207,4242,1,2,18,classify_train,5,1,aab.png,,1,0,1,NA,NA,,Tannet,Tannet,0.187341295,1,NA,full,NA,NA,classify,2
208,4242,1,2,18,classify_train,5,2,abb.png,,1,0,0,NA,NA,,Tannet,Tannet,1.167715042,1,NA,full,NA,NA,classify,1
209,4242,1,2,18,classify_train,5,3,aba.png,,0,0,0,NA,NA,,Lape,Lape,1.753145954,1,NA,full,NA,NA,classify,1
210,4242,1,2,18,classify_train,5,4,baa.png,,0,1,1,NA,NA,,Tannet,Lape,0.208416293,0,NA,full,NA,NA,classify,1
211,4242,1,2,18,classify_train,5,4,baa.png,,0,1,1,NA,NA,,Tannet,Tannet,0.663194999,1,NA,full,NA,NA,classify,2
212,4242,1,2,18,classify_train,5,5,aaa.png,,0,0,1,NA,NA,,Lape,Tannet,0.897183158,0,NA,full,NA,NA,classify,1
213,4242,1,2,18,classify_train,5,5,aaa.png,,0,0,1,NA,NA,,Lape,Lape,0.640346149,1,NA,full,NA,NA,classify,2
214,4242,1,2,18,classify_train,5,6,bba.png,,0,1,0,NA,NA,,Tannet,Tannet,3.938659103,1,NA,full,NA,NA,classify,1
215,4242,1,2,18,classify_train,5,7,bab.png,,1,1,1,NA,NA,,Lape,Lape,2.435853319,1,NA,full,NA,NA,classify,1
216,4242,1,2,18,classify_train,5,8,bbb.png,,1,1,0,NA,NA,,Lape,Tannet,0.735342882,0,NA,full,NA,NA,classify,1
217,4242,1,2,18,classify_train,5,8,bbb.png,,1,1,0,NA,NA,,Lape,Lape,0.081347875,1,NA,full,NA,NA,classify,2
218,4242,1,2,18,classify_train,6,1,bba.png,,0,1,0,NA,NA,,Tannet,Tannet,1.716884629,1,NA,full,NA,NA,classify,1
219,4242,1,2,18,classify_train,6,2,baa.png,,0,1,1,NA,NA,,Tannet,Tannet,0.842943627,1,NA,full,NA,NA,classify,1
220,4242,1,2,18,classify_train,6,3,abb.png,,1,0,0,NA,NA,,Tannet,Lape,0.735356125,0,NA,full,NA,NA,classify,1
221,4242,1,2,18,classify_train,6,3,abb.png,,1,0,0,NA,NA,,Tannet,Tannet,0.686070995,1,NA,full,NA,NA,classify,2
222,4242,1,2,18,classify_train,6,4,bbb.png,,1,1,0,NA,NA,,Lape,Lape,0.712066958,1,NA,full,NA,NA,classify,1
223,4242,1,2,18,classify_train,6,5,aaa.png,,0,0,1,NA,NA,,Lape,Lape,1.723974076,1,NA,full,NA,NA,classify,1
224,4242,1,2,18,classify_train,6,6,bab.png,,1,1,1,NA,NA,,Lape,Tannet,0.619116544,0,NA,full,NA,NA,classify,1
225,4242,1,2,18,classify_train,6,6,bab.png,,1,1,1,NA,NA,,Lape,Lape,0.323492176,1,NA,full,NA,NA,classify,2
226,4242,1,2,18,classify_train,6,7,aab.png,,1,0,1,NA,NA,,Tannet,Tannet,1.111421578,1,NA,full,NA,NA,classify,1
227,4242,1,2,18,classify_train,6,8,aba.png,,0,0,0,NA,NA,,Lape,Lape,2.353769815,1,NA,full,NA,NA,classify,1
228,4242,1,2,18,classify_train,7,1,bbb.png,,1,1,0,NA,NA,,Lape,Lape,4.394069483,1,NA,full,NA,NA,classify,1
229,4242,1,2,18,classify_train,7,2,abb.png,,1,0,0,NA,NA,,Tannet,Tannet,0.781369991,1,NA,full,NA,NA,classify,1
230,4242,1,2,18,classify_train,7,3,aba.png,,0,0,0,NA,NA,,Lape,Tannet,3.592059515,0,NA,full,NA,NA,classify,1
231,4242,1,2,18,classify_train,7,3,aba.png,,0,0,0,NA,NA,,Lape,Lape,0.36401101,1,NA,full,NA,NA,classify,2
232,4242,1,2,18,classify_train,7,4,aaa.png,,0,0,1,NA,NA,,Lape,Tannet,1.037703448,0,NA,full,NA,NA,classify,1
233,4242,1,2,18,classify_train,7,4,aaa.png,,0,0,1,NA,NA,,Lape,Lape,0.000119515,1,NA,full,NA,NA,classify,2
234,4242,1,2,18,classify_train,7,5,bba.png,,0,1,0,NA,NA,,Tannet,Tannet,0.692456927,1,NA,full,NA,NA,classify,1
235,4242,1,2,18,classify_train,7,6,baa.png,,0,1,1,NA,NA,,Tannet,Tannet,0.420345527,1,NA,full,NA,NA,classify,1
236,4242,1,2,18,classify_train,7,7,bab.png,,1,1,1,NA,NA,,Lape,Lape,0.826688619,1,NA,full,NA,NA,classify,1
237,4242,1,2,18,classify_train,7,8,aab.png,,1,0,1,NA,NA,,Tannet,Lape,0.403529693,0,NA,full,NA,NA,classify,1
238,4242,1,2,18,classify_train,7,8,aab.png,,1,0,1,NA,NA,,Tannet,Tannet,2.730178584,1,NA,full,NA,NA,classify,2
239,4242,1,2,18,classify_train,8,1,aaa.png,,0,0,1,NA,NA,,Lape,Lape,2.766919954,1,NA,full,NA,NA,classify,1
240,4242,1,2,18,classify_train,8,2,aba.png,,0,0,0,NA,NA,,Lape,Lape,1.792194524,1,NA,full,NA,NA,classify,1
241,4242,1,2,18,classify_train,8,3,bab.png,,1,1,1,NA,NA,,Lape,Tannet,2.387692159,0,NA,full,NA,NA,classify,1
242,4242,1,2,18,classify_train,8,3,bab.png,,1,1,1,NA,NA,,Lape,Tannet,2.870770384,0,NA,full,NA,NA,classify,2
243,4242,1,2,18,classify_train,8,3,bab.png,,1,1,1,NA,NA,,Lape,Lape,0.568452856,1,NA,full,NA,NA,classify,3
244,4242,1,2,18,classify_train,8,4,bbb.png,,1,1,0,NA,NA,,Lape,Lape,4.43585034,1,NA,full,NA,NA,classify,1
245,4242,1,2,18,classify_train,8,5,abb.png,,1,0,0,NA,NA,,Tannet,Tannet,1.764310823,1,NA,full,NA,NA,classify,1
246,4242,1,2,18,classify_train,8,6,baa.png,,0,1,1,NA,NA,,Tannet,Tannet,7.331265606,1,NA,full,NA,NA,classify,1
247,4242,1,2,18,classify_train,8,7,bba.png,,0,1,0,NA,NA,,Tannet,Tannet,0.262203589,1,NA,full,NA,NA,classify,1
248,4242,1,2,18,classify_train,8,8,aab.png,,1,0,1,NA,NA,,Tannet,Tannet,0.361334673,1,NA,full,NA,NA,classify,1
249,4242,1,2,18,classify_train,9,1,bab.png,,1,1,1,NA,NA,,Lape,Lape,1.401340685,1,NA,full,NA,NA,classify,1
250,4242,1,2,18,classify_train,9,2,aba.png,,0,0,0,NA,NA,,Lape,Lape,0.386861845,1,NA,full,NA,NA,classify,1
251,4242,1,2,18,classify_train,9,3,bbb.png,,1,1,0,NA,NA,,Lape,Lape,0.635240119,1,NA,full,NA,NA,classify,1
252,4242,1,2,18,classify_train,9,4,aab.png,,1,0,1,NA,NA,,Tannet,Tannet,8.777112151,1,NA,full,NA,NA,classify,1
253,4242,1,2,18,classify_train,9,5,baa.png,,0,1,1,NA,NA,,Tannet,Lape,1.148749597,0,NA,full,NA,NA,classify,1
254,4242,1,2,18,classify_train,9,5,baa.png,,0,1,1,NA,NA,,Tannet,Tannet,0.031570782,1,NA,full,NA,NA,classify,2
255,4242,1,2,18,classify_train,9,6,aaa.png,,0,0,1,NA,NA,,Lape,Lape,0.221128233,1,NA,full,NA,NA,classify,1
256,4242,1,2,18,classify_train,9,7,bba.png,,0,1,0,NA,NA,,Tannet,Tannet,1.793407218,1,NA,full,NA,NA,classify,1
257,4242,1,2,18,classify_train,9,8,abb.png,,1,0,0,NA,NA,,Tannet,Tannet,3.932187757,1,NA,full,NA,NA,classify,1
258,4242,1,2,18,classify_train,10,1,aba.png,,0,0,0,NA,NA,,Lape,Lape,2.271342996,1,NA,full,NA,NA,classify,1
259,4242,1,2,18,classify_train,10,2,aaa.png,,0,0,1,NA,NA,,Lape,Lape,0.469763414,1,NA,full,NA,NA,classify,1
260,4242,1,2,18,classify_train,10,3,aab.png,,1,0,1,NA,NA,,Tannet,Tannet,1.143633635,1,NA,full,NA,NA,classify,1
261,4242,1,2,18,classify_train,10,4,bab.png,,1,1,1,NA,NA,,Lape,Lape,0.90968752,1,NA,full,NA,NA,classify,1
262,4242,1,2,18,classify_train,10,5,abb.png,,1,0,0,NA,NA,,Tannet,Tannet,3.178393244,1,NA,full,NA,NA,classify,1
263,4242,1,2,18,classify_train,10,6,bbb.png,,1,1,0,NA,NA,,Lape,Lape,0.643974964,1,NA,full,NA,NA,classify,1
264,4242,1,2,18,classify_train,10,7,baa.png,,0,1,1,NA,NA,,Tannet,Tannet,1.371152103,1,NA,full,NA,NA,classify,1
265,4242,1,2,18,classify_train,10,8,bba.png,,0,1,0,NA,NA,,Tannet,Tannet,0.961563241,1,NA,full,NA,NA,classify,1
266,4242,1,2,18,classify_train,11,1,bbb.png,,1,1,0,NA,NA,,Lape,Lape,0.625138965,1,NA,full,NA,NA,classify,1
267,4242,1,2,18,classify_train,11,2,bba.png,,0,1,0,NA,NA,,Tannet,Tannet,0.674659482,1,NA,full,NA,NA,classify,1
268,4242,1,2,18,classify_train,11,3,baa.png,,0,1,1,NA,NA,,Tannet,Tannet,0.675832118,1,NA,full,NA,NA,classify,1
269,4242,1,2,18,classify_train,11,4,aaa.png,,0,0,1,NA,NA,,Lape,Lape,0.358934444,1,NA,full,NA,NA,classify,1
270,4242,1,2,18,classify_train,11,5,abb.png,,1,0,0,NA,NA,,Tannet,Tannet,0.386499659,1,NA,full,NA,NA,classify,1
271,4242,1,2,18,classify_train,11,6,aab.png,,1,0,1,NA,NA,,Tannet,Tannet,2.002532654,1,NA,full,NA,NA,classify,1
272,4242,1,2,18,classify_train,11,7,aba.png,,0,0,0,NA,NA,,Lape,Lape,0.590895156,1,NA,full,NA,NA,classify,1
273,4242,1,2,18,classify_train,11,8,bab.png,,1,1,1,NA,NA,,Lape,Lape,0.894026775,1,NA,full,NA,NA,classify,1
274,4242,1,2,18,classify_train,12,1,bbb.png,,1,1,0,NA,NA,,Lape,Lape,0.710869492,1,NA,full,NA,NA,classify,1
275,4242,1,2,18,classify_train,12,2,abb.png,,1,0,0,NA,NA,,Tannet,Tannet,2.905194954,1,NA,full,NA,NA,classify,1
276,4242,1,2,18,classify_train,12,3,aaa.png,,0,0,1,NA,NA,,Lape,Lape,0.70915755,1,NA,full,NA,NA,classify,1
277,4242,1,2,18,classify_train,12,4,bab.png,,1,1,1,NA,NA,,Lape,Lape,0.571175211,1,NA,full,NA,NA,classify,1
278,4242,1,2,18,classify_train,12,5,aba.png,,0,0,0,NA,NA,,Lape,Lape,0.168278517,1,NA,full,NA,NA,classify,1
279,4242,1,2,18,classify_train,12,6,aab.png,,1,0,1,NA,NA,,Tannet,Tannet,0.360765239,1,NA,full,NA,NA,classify,1
280,4242,1,2,18,classify_train,12,7,baa.png,,0,1,1,NA,NA,,Tannet,Tannet,1.143915372,1,NA,full,NA,NA,classify,1
281,4242,1,2,18,classify_train,12,8,bba.png,,0,1,0,NA,NA,,Tannet,Tannet,0.714253648,1,NA,full,NA,NA,classify,1
282,4242,1,2,18,inference_test,NA,1,a__.png,0,0,NaN,1,0,0,Lape,0,0,5.014574848,1,NA,partial,1,5.014574848,classify,
283,4242,1,2,18,inference_test,NA,2,_ab.png,1,0,1,0,1,0,Tannet,0,0,12.26151861,1,NA,full,1,12.26151861,classify,
284,4242,1,2,18,inference_test,NA,3,ab_.png,1,0,0,1,0,0,Tannet,1,1,4.828758112,1,NA,full,1,4.828758112,classify,
285,4242,1,2,18,inference_test,NA,4,_ba.png,0,1,0,0,1,0,Tannet,1,1,5.045450723,1,NA,full,1,5.045450723,classify,
286,4242,1,2,18,inference_test,NA,5,bb_.png,1,1,0,1,0,0,Lape,1,1,1.774317293,1,NA,full,1,1.774317293,classify,
287,4242,1,2,18,inference_test,NA,6,__b.png,1,0,NaN,0,1,0,Tannet,0,0,6.612956399,1,NA,partial,1,6.612956399,classify,
288,4242,1,2,18,inference_test,NA,7,_bb.png,1,0,0,0,1,0,Tannet,0,0,5.178842832,1,NA,full,1,5.178842832,classify,
289,4242,1,2,18,inference_test,NA,8,aa_.png,0,0,1,1,0,0,Lape,0,0,2.552477599,1,NA,full,1,2.552477599,classify,
290,4242,1,2,18,inference_test,NA,9,_ba.png,0,0,0,0,1,0,Lape,0,0,6.029421171,1,NA,full,1,6.029421171,classify,
291,4242,1,2,18,inference_test,NA,10,__a.png,0,0,NaN,0,1,0,Lape,0,0,1.387139278,1,NA,partial,1,1.387139278,classify,
292,4242,1,2,18,inference_test,NA,11,_aa.png,0,1,1,0,1,0,Tannet,1,1,2.247111946,1,NA,full,1,2.247111946,classify,
293,4242,1,2,18,inference_test,NA,12,_ab.png,1,1,1,0,1,0,Lape,1,1,4.932298002,1,NA,full,1,4.932298002,classify,
294,4242,1,2,18,inference_test,NA,13,ba_.png,0,1,1,1,0,0,Tannet,0,0,6.630166533,1,NA,full,1,6.630166533,classify,
295,4242,1,2,18,inference_test,NA,14,b__.png,1,1,NaN,1,0,0,Lape,1,1,3.882944342,1,NA,partial,1,3.882944342,classify,
296,4242,1,2,18,inference_test,NA,15,a__.png,1,0,NaN,1,0,0,Tannet,1,1,2.498938603,1,NA,partial,1,2.498938603,classify,
297,4242,1,2,18,inference_test,NA,16,_aa.png,0,0,1,0,1,0,Lape,0,0,4.421587687,1,NA,full,1,4.421587687,classify,
298,4242,1,2,18,inference_test,NA,17,b__.png,0,1,NaN,1,0,0,Tannet,0,0,1.737536525,1,NA,partial,1,1.737536525,classify,
299,4242,1,2,18,inference_test,NA,18,bb_.png,0,1,0,1,0,0,Tannet,0,0,1.405586606,1,NA,full,1,1.405586606,classify,
300,4242,1,2,18,inference_test,NA,19,ab_.png,0,0,0,1,0,0,Lape,0,0,2.993873624,1,NA,full,1,2.993873624,classify,
301,4242,1,2,18,inference_test,NA,20,__a.png,0,1,NaN,0,1,0,Tannet,1,1,6.714556242,1,NA,partial,1,6.714556242,classify,
302,4242,1,2,18,inference_test,NA,21,_bb.png,1,1,0,0,1,0,Lape,1,1,1.509770088,1,NA,full,1,1.509770088,classify,
303,4242,1,2,18,inference_test,NA,22,__b.png,1,1,NaN,0,1,0,Lape,1,1,1.792496125,1,NA,partial,1,1.792496125,classify,
304,4242,1,2,18,inference_test,NA,23,aa_.png,1,0,1,1,0,0,Tannet,1,1,9.674309877,1,NA,full,1,9.674309877,classify,
305,4242,1,2,18,inference_test,NA,24,ba_.png,1,1,1,1,0,0,Lape,1,1,3.060722135,1,NA,full,1,3.060722135,classify,
306,4242,1,2,18,classify_test,NA,1,a_b.png,1,0,NaN,NA,NA,NA,Tannet,Tannet,4.406668861,1,NA,NA,partial,1,4.406668861,classify,
307,4242,1,2,18,classify_test,NA,2,bba.png,0,1,0,NA,NA,NA,Tannet,Tannet,1.706165375,1,NA,NA,full,1,1.706165375,classify,
308,4242,1,2,18,classify_test,NA,3,bab.png,1,1,1,NA,NA,NA,Lape,Lape,0.815810453,1,NA,NA,full,1,0.815810453,classify,
309,4242,1,2,18,classify_test,NA,4,aba.png,0,0,0,NA,NA,NA,Lape,Lape,3.750052143,1,NA,NA,full,1,3.750052143,classify,
310,4242,1,2,18,classify_test,NA,5,a_a.png,0,0,NaN,NA,NA,NA,Lape,Lape,0.280141405,1,NA,NA,partial,1,0.280141405,classify,
311,4242,1,2,18,classify_test,NA,6,b_b.png,1,1,NaN,NA,NA,NA,Lape,Lape,0.00011819,1,NA,NA,partial,1,0.00011819,classify,
312,4242,1,2,18,classify_test,NA,7,baa.png,0,1,1,NA,NA,NA,Tannet,Tannet,0.000198639,1,NA,NA,full,1,0.000198639,classify,
313,4242,1,2,18,classify_test,NA,8,b_a.png,0,1,NaN,NA,NA,NA,Tannet,Tannet,0.014917833,1,NA,NA,partial,1,0.014917833,classify,
314,4242,1,2,18,classify_test,NA,9,bbb.png,1,1,0,NA,NA,NA,Lape,Lape,0.185559167,1,NA,NA,full,1,0.185559167,classify,
315,4242,1,2,18,classify_test,NA,10,aaa.png,0,0,1,NA,NA,NA,Lape,Lape,0.496747277,1,NA,NA,full,1,0.496747277,classify,
316,4242,1,2,18,classify_test,NA,11,aab.png,1,0,1,NA,NA,NA,Tannet,Tannet,0.655595379,1,NA,NA,full,1,0.655595379,classify,
317,4242,1,2,18,classify_test,NA,12,abb.png,1,0,0,NA,NA,NA,Tannet,Tannet,0.000184073,1,NA,NA,full,1,0.000184073,classify,
318,4242,1,2,18,switch_test,12,1,bbb.png,0,1,0,1,1,0,Lape,Tannet,5.742976601,1,1,NA,full,1,5.742976601,classify,
319,4242,1,2,18,switch_test,12,2,baa.png,1,0,1,0,1,1,Tannet,Tannet,10.50209697,0,2,NA,full,0,10.50209697,classify,
320,4242,1,2,18,switch_test,12,3,aab.png,0,0,1,1,0,1,Tannet,Lape,0.828629658,1,1,NA,full,1,0.828629658,classify,
321,4242,1,2,18,switch_test,12,4,aba.png,0,1,0,0,0,0,Lape,Tannet,0.398283621,1,1,NA,full,1,0.398283621,classify,
322,4242,1,2,18,switch_test,12,5,abb.png,0,0,0,1,0,0,Tannet,Lape,0.572067765,1,1,NA,full,1,0.572067765,classify,
323,4242,1,2,18,switch_test,12,6,bba.png,1,1,0,0,1,0,Tannet,Lape,0.600053103,1,1,NA,full,1,0.600053103,classify,
324,4242,1,2,18,switch_test,12,7,bab.png,0,1,1,1,1,1,Lape,Tannet,0.119994199,1,1,NA,full,1,0.119994199,classify,
325,4242,1,2,18,switch_test,12,8,aaa.png,0,1,1,0,0,1,Lape,Tannet,0.423667112,1,1,NA,full,1,0.423667112,classify,
326,4264,1,2,16,classify_train,1,1,aba.png,,0,0,1,NA,NA,,Lape,Tannet,1.690818812,0,NA,full,NA,NA,classify,1
327,4264,1,2,16,classify_train,1,1,aba.png,,0,0,1,NA,NA,,Lape,Lape,0.67601288,1,NA,full,NA,NA,classify,2
328,4264,1,2,16,classify_train,1,2,baa.png,,0,1,0,NA,NA,,Tannet,Tannet,1.339566754,1,NA,full,NA,NA,classify,1
329,4264,1,2,16,classify_train,1,3,abb.png,,1,0,1,NA,NA,,Tannet,Lape,0.709584956,0,NA,full,NA,NA,classify,1
330,4264,1,2,16,classify_train,1,3,abb.png,,1,0,1,NA,NA,,Tannet,Tannet,8.516495031,1,NA,full,NA,NA,classify,2
331,4264,1,2,16,classify_train,1,4,aab.png,,1,0,0,NA,NA,,Tannet,Tannet,3.612960703,1,NA,full,NA,NA,classify,1
332,4264,1,2,16,classify_train,1,5,bab.png,,1,1,0,NA,NA,,Lape,Tannet,1.411764628,0,NA,full,NA,NA,classify,1
333,4264,1,2,16,classify_train,1,5,bab.png,,1,1,0,NA,NA,,Lape,Lape,3.70519469,1,NA,full,NA,NA,classify,2
334,4264,1,2,16,classify_train,1,6,bba.png,,0,1,1,NA,NA,,Tannet,Tannet,3.846344999,1,NA,full,NA,NA,classify,1
335,4264,1,2,16,classify_train,1,7,bbb.png,,1,1,1,NA,NA,,Lape,Lape,2.219094495,1,NA,full,NA,NA,classify,1
336,4264,1,2,16,classify_train,1,8,aaa.png,,0,0,0,NA,NA,,Lape,Tannet,4.285826139,0,NA,full,NA,NA,classify,1
337,4264,1,2,16,classify_train,1,8,aaa.png,,0,0,0,NA,NA,,Lape,Lape,3.718992858,1,NA,full,NA,NA,classify,2
338,4264,1,2,16,classify_train,2,1,bab.png,,1,1,0,NA,NA,,Lape,Tannet,3.400160435,0,NA,full,NA,NA,classify,1
339,4264,1,2,16,classify_train,2,1,bab.png,,1,1,0,NA,NA,,Lape,Lape,0.004935531,1,NA,full,NA,NA,classify,2
340,4264,1,2,16,classify_train,2,2,aaa.png,,0,0,0,NA,NA,,Lape,Lape,3.409946083,1,NA,full,NA,NA,classify,1
341,4264,1,2,16,classify_train,2,3,abb.png,,1,0,1,NA,NA,,Tannet,Tannet,0.81694336,1,NA,full,NA,NA,classify,1
342,4264,1,2,16,classify_train,2,4,aba.png,,0,0,1,NA,NA,,Lape,Tannet,0.958376731,0,NA,full,NA,NA,classify,1
343,4264,1,2,16,classify_train,2,4,aba.png,,0,0,1,NA,NA,,Lape,Lape,0.115976052,1,NA,full,NA,NA,classify,2
344,4264,1,2,16,classify_train,2,5,bba.png,,0,1,1,NA,NA,,Tannet,Lape,3.487059955,0,NA,full,NA,NA,classify,1
345,4264,1,2,16,classify_train,2,5,bba.png,,0,1,1,NA,NA,,Tannet,Tannet,0.79911314,1,NA,full,NA,NA,classify,2
346,4264,1,2,16,classify_train,2,6,bbb.png,,1,1,1,NA,NA,,Lape,Lape,6.407343573,1,NA,full,NA,NA,classify,1
347,4264,1,2,16,classify_train,2,7,baa.png,,0,1,0,NA,NA,,Tannet,Tannet,3.204111442,1,NA,full,NA,NA,classify,1
348,4264,1,2,16,classify_train,2,8,aab.png,,1,0,0,NA,NA,,Tannet,Tannet,1.941659554,1,NA,full,NA,NA,classify,1
349,4264,1,2,16,classify_train,3,1,aab.png,,1,0,0,NA,NA,,Tannet,Tannet,0.750043866,1,NA,full,NA,NA,classify,1
350,4264,1,2,16,classify_train,3,2,bab.png,,1,1,0,NA,NA,,Lape,Lape,6.871895346,1,NA,full,NA,NA,classify,1
351,4264,1,2,16,classify_train,3,3,abb.png,,1,0,1,NA,NA,,Tannet,Lape,1.823102181,0,NA,full,NA,NA,classify,1
352,4264,1,2,16,classify_train,3,3,abb.png,,1,0,1,NA,NA,,Tannet,Tannet,1.731895823,1,NA,full,NA,NA,classify,2
353,4264,1,2,16,classify_train,3,4,bba.png,,0,1,1,NA,NA,,Tannet,Tannet,2.53629708,1,NA,full,NA,NA,classify,1
354,4264,1,2,16,classify_train,3,5,baa.png,,0,1,0,NA,NA,,Tannet,Lape,1.433058129,0,NA,full,NA,NA,classify,1
355,4264,1,2,16,classify_train,3,5,baa.png,,0,1,0,NA,NA,,Tannet,Tannet,0.030670945,1,NA,full,NA,NA,classify,2
356,4264,1,2,16,classify_train,3,6,aaa.png,,0,0,0,NA,NA,,Lape,Lape,0.629376279,1,NA,full,NA,NA,classify,1
357,4264,1,2,16,classify_train,3,7,aba.png,,0,0,1,NA,NA,,Lape,Tannet,1.300111305,0,NA,full,NA,NA,classify,1
358,4264,1,2,16,classify_train,3,7,aba.png,,0,0,1,NA,NA,,Lape,Lape,3.47837775,1,NA,full,NA,NA,classify,2
359,4264,1,2,16,classify_train,3,8,bbb.png,,1,1,1,NA,NA,,Lape,Tannet,1.457199129,0,NA,full,NA,NA,classify,1
360,4264,1,2,16,classify_train,3,8,bbb.png,,1,1,1,NA,NA,,Lape,Lape,1.5843278,1,NA,full,NA,NA,classify,2
361,4264,1,2,16,classify_train,4,1,aaa.png,,0,0,0,NA,NA,,Lape,Lape,1.252753972,1,NA,full,NA,NA,classify,1
362,4264,1,2,16,classify_train,4,2,aab.png,,1,0,0,NA,NA,,Tannet,Tannet,2.565385861,1,NA,full,NA,NA,classify,1
363,4264,1,2,16,classify_train,4,3,abb.png,,1,0,1,NA,NA,,Tannet,Tannet,0.606591656,1,NA,full,NA,NA,classify,1
364,4264,1,2,16,classify_train,4,4,bba.png,,0,1,1,NA,NA,,Tannet,Tannet,2.72453126,1,NA,full,NA,NA,classify,1
365,4264,1,2,16,classify_train,4,5,bab.png,,1,1,0,NA,NA,,Lape,Lape,2.066498904,1,NA,full,NA,NA,classify,1
366,4264,1,2,16,classify_train,4,6,baa.png,,0,1,0,NA,NA,,Tannet,Tannet,0.653657981,1,NA,full,NA,NA,classify,1
367,4264,1,2,16,classify_train,4,7,bbb.png,,1,1,1,NA,NA,,Lape,Lape,0.488852015,1,NA,full,NA,NA,classify,1
368,4264,1,2,16,classify_train,4,8,aba.png,,0,0,1,NA,NA,,Lape,Lape,0.618476924,1,NA,full,NA,NA,classify,1
369,4264,1,2,16,classify_train,5,1,bbb.png,,1,1,1,NA,NA,,Lape,Lape,0.326064228,1,NA,full,NA,NA,classify,1
370,4264,1,2,16,classify_train,5,2,abb.png,,1,0,1,NA,NA,,Tannet,Tannet,0.503955576,1,NA,full,NA,NA,classify,1
371,4264,1,2,16,classify_train,5,3,aaa.png,,0,0,0,NA,NA,,Lape,Lape,0.495929213,1,NA,full,NA,NA,classify,1
372,4264,1,2,16,classify_train,5,4,bab.png,,1,1,0,NA,NA,,Lape,Lape,1.085464349,1,NA,full,NA,NA,classify,1
373,4264,1,2,16,classify_train,5,5,aab.png,,1,0,0,NA,NA,,Tannet,Tannet,0.521456385,1,NA,full,NA,NA,classify,1
374,4264,1,2,16,classify_train,5,6,baa.png,,0,1,0,NA,NA,,Tannet,Tannet,1.381914727,1,NA,full,NA,NA,classify,1
375,4264,1,2,16,classify_train,5,7,aba.png,,0,0,1,NA,NA,,Lape,Lape,0.346209262,1,NA,full,NA,NA,classify,1
376,4264,1,2,16,classify_train,5,8,bba.png,,0,1,1,NA,NA,,Tannet,Tannet,0.913789758,1,NA,full,NA,NA,classify,1
377,4264,1,2,16,classify_train,6,1,baa.png,,0,1,0,NA,NA,,Tannet,Tannet,0.642356713,1,NA,full,NA,NA,classify,1
378,4264,1,2,16,classify_train,6,2,aab.png,,1,0,0,NA,NA,,Tannet,Tannet,2.340579485,1,NA,full,NA,NA,classify,1
379,4264,1,2,16,classify_train,6,3,aaa.png,,0,0,0,NA,NA,,Lape,Lape,0.517746791,1,NA,full,NA,NA,classify,1
380,4264,1,2,16,classify_train,6,4,bab.png,,1,1,0,NA,NA,,Lape,Lape,0.409699439,1,NA,full,NA,NA,classify,1
381,4264,1,2,16,classify_train,6,5,abb.png,,1,0,1,NA,NA,,Tannet,Tannet,0.574877853,1,NA,full,NA,NA,classify,1
382,4264,1,2,16,classify_train,6,6,aba.png,,0,0,1,NA,NA,,Lape,Lape,0.677195116,1,NA,full,NA,NA,classify,1
383,4264,1,2,16,classify_train,6,7,bbb.png,,1,1,1,NA,NA,,Lape,Lape,2.325988745,1,NA,full,NA,NA,classify,1
384,4264,1,2,16,classify_train,6,8,bba.png,,0,1,1,NA,NA,,Tannet,Tannet,0.205957797,1,NA,full,NA,NA,classify,1
385,4264,1,2,16,classify_train,7,1,bba.png,,0,1,1,NA,NA,,Tannet,Tannet,1.084345347,1,NA,full,NA,NA,classify,1
386,4264,1,2,16,classify_train,7,2,aba.png,,0,0,1,NA,NA,,Lape,Lape,1.189483623,1,NA,full,NA,NA,classify,1
387,4264,1,2,16,classify_train,7,3,abb.png,,1,0,1,NA,NA,,Tannet,Tannet,0.531932306,1,NA,full,NA,NA,classify,1
388,4264,1,2,16,classify_train,7,4,bbb.png,,1,1,1,NA,NA,,Lape,Lape,0.77980438,1,NA,full,NA,NA,classify,1
389,4264,1,2,16,classify_train,7,5,aab.png,,1,0,0,NA,NA,,Tannet,Tannet,0.293809463,1,NA,full,NA,NA,classify,1
390,4264,1,2,16,classify_train,7,6,bab.png,,1,1,0,NA,NA,,Lape,Lape,0.646962503,1,NA,full,NA,NA,classify,1
391,4264,1,2,16,classify_train,7,7,aaa.png,,0,0,0,NA,NA,,Lape,Lape,0.837402245,1,NA,full,NA,NA,classify,1
392,4264,1,2,16,classify_train,7,8,baa.png,,0,1,0,NA,NA,,Tannet,Tannet,0.379732009,1,NA,full,NA,NA,classify,1
393,4264,1,2,16,classify_train,8,1,abb.png,,1,0,1,NA,NA,,Tannet,Tannet,0.94094081,1,NA,full,NA,NA,classify,1
394,4264,1,2,16,classify_train,8,2,bab.png,,1,1,0,NA,NA,,Lape,Lape,0.652538647,1,NA,full,NA,NA,classify,1
395,4264,1,2,16,classify_train,8,3,aaa.png,,0,0,0,NA,NA,,Lape,Lape,0.483619518,1,NA,full,NA,NA,classify,1
396,4264,1,2,16,classify_train,8,4,baa.png,,0,1,0,NA,NA,,Tannet,Tannet,0.358027655,1,NA,full,NA,NA,classify,1
397,4264,1,2,16,classify_train,8,5,bbb.png,,1,1,1,NA,NA,,Lape,Lape,0.919242084,1,NA,full,NA,NA,classify,1
398,4264,1,2,16,classify_train,8,6,bba.png,,0,1,1,NA,NA,,Tannet,Tannet,0.748014432,1,NA,full,NA,NA,classify,1
399,4264,1,2,16,classify_train,8,7,aba.png,,0,0,1,NA,NA,,Lape,Lape,0.353579783,1,NA,full,NA,NA,classify,1
400,4264,1,2,16,classify_train,8,8,aab.png,,1,0,0,NA,NA,,Tannet,Tannet,0.979553035,1,NA,full,NA,NA,classify,1
401,4264,1,2,16,classify_train,9,1,aaa.png,,0,0,0,NA,NA,,Lape,Lape,0.469058243,1,NA,full,NA,NA,classify,1
402,4264,1,2,16,classify_train,9,2,aab.png,,1,0,0,NA,NA,,Tannet,Tannet,1.321902398,1,NA,full,NA,NA,classify,1
403,4264,1,2,16,classify_train,9,3,aba.png,,0,0,1,NA,NA,,Lape,Lape,3.13983399,1,NA,full,NA,NA,classify,1
404,4264,1,2,16,classify_train,9,4,bbb.png,,1,1,1,NA,NA,,Lape,Lape,0.513396585,1,NA,full,NA,NA,classify,1
405,4264,1,2,16,classify_train,9,5,bba.png,,0,1,1,NA,NA,,Tannet,Tannet,0.294927804,1,NA,full,NA,NA,classify,1
406,4264,1,2,16,classify_train,9,6,abb.png,,1,0,1,NA,NA,,Tannet,Tannet,1.98173476,1,NA,full,NA,NA,classify,1
407,4264,1,2,16,classify_train,9,7,bab.png,,1,1,0,NA,NA,,Lape,Lape,0.424488155,1,NA,full,NA,NA,classify,1
408,4264,1,2,16,classify_train,9,8,baa.png,,0,1,0,NA,NA,,Tannet,Tannet,1.069635423,1,NA,full,NA,NA,classify,1
409,4264,1,2,16,classify_train,10,1,bba.png,,0,1,1,NA,NA,,Tannet,Tannet,0.334412388,1,NA,full,NA,NA,classify,1
410,4264,1,2,16,classify_train,10,2,aaa.png,,0,0,0,NA,NA,,Lape,Lape,0.287608598,1,NA,full,NA,NA,classify,1
411,4264,1,2,16,classify_train,10,3,bbb.png,,1,1,1,NA,NA,,Lape,Lape,4.037878913,1,NA,full,NA,NA,classify,1
412,4264,1,2,16,classify_train,10,4,aba.png,,0,0,1,NA,NA,,Lape,Lape,0.355159299,1,NA,full,NA,NA,classify,1
413,4264,1,2,16,classify_train,10,5,abb.png,,1,0,1,NA,NA,,Tannet,Tannet,0.524777639,1,NA,full,NA,NA,classify,1
414,4264,1,2,16,classify_train,10,6,baa.png,,0,1,0,NA,NA,,Tannet,Tannet,0.176739239,1,NA,full,NA,NA,classify,1
415,4264,1,2,16,classify_train,10,7,bab.png,,1,1,0,NA,NA,,Lape,Lape,1.103470366,1,NA,full,NA,NA,classify,1
416,4264,1,2,16,classify_train,10,8,aab.png,,1,0,0,NA,NA,,Tannet,Tannet,0.376262438,1,NA,full,NA,NA,classify,1
417,4264,1,2,16,classify_train,11,1,aab.png,,1,0,0,NA,NA,,Tannet,Tannet,0.280665482,1,NA,full,NA,NA,classify,1
418,4264,1,2,16,classify_train,11,2,bba.png,,0,1,1,NA,NA,,Tannet,Tannet,0.540949219,1,NA,full,NA,NA,classify,1
419,4264,1,2,16,classify_train,11,3,aaa.png,,0,0,0,NA,NA,,Lape,Lape,0.178979231,1,NA,full,NA,NA,classify,1
420,4264,1,2,16,classify_train,11,4,bbb.png,,1,1,1,NA,NA,,Lape,Lape,0.788904721,1,NA,full,NA,NA,classify,1
421,4264,1,2,16,classify_train,11,5,abb.png,,1,0,1,NA,NA,,Tannet,Tannet,0.302869084,1,NA,full,NA,NA,classify,1
422,4264,1,2,16,classify_train,11,6,bab.png,,1,1,0,NA,NA,,Lape,Lape,0.4537087,1,NA,full,NA,NA,classify,1
423,4264,1,2,16,classify_train,11,7,baa.png,,0,1,0,NA,NA,,Tannet,Tannet,0.436498898,1,NA,full,NA,NA,classify,1
424,4264,1,2,16,classify_train,11,8,aba.png,,0,0,1,NA,NA,,Lape,Lape,0.255577965,1,NA,full,NA,NA,classify,1
425,4264,1,2,16,classify_train,12,1,aab.png,,1,0,0,NA,NA,,Tannet,Tannet,0.48883778,1,NA,full,NA,NA,classify,1
426,4264,1,2,16,classify_train,12,2,bab.png,,1,1,0,NA,NA,,Lape,Lape,0.472341755,1,NA,full,NA,NA,classify,1
427,4264,1,2,16,classify_train,12,3,aaa.png,,0,0,0,NA,NA,,Lape,Lape,0.370773363,1,NA,full,NA,NA,classify,1
428,4264,1,2,16,classify_train,12,4,bba.png,,0,1,1,NA,NA,,Tannet,Tannet,0.250369966,1,NA,full,NA,NA,classify,1
429,4264,1,2,16,classify_train,12,5,aba.png,,0,0,1,NA,NA,,Lape,Lape,0.238683337,1,NA,full,NA,NA,classify,1
430,4264,1,2,16,classify_train,12,6,bbb.png,,1,1,1,NA,NA,,Lape,Lape,0.434279101,1,NA,full,NA,NA,classify,1
431,4264,1,2,16,classify_train,12,7,abb.png,,1,0,1,NA,NA,,Tannet,Tannet,1.211145932,1,NA,full,NA,NA,classify,1
432,4264,1,2,16,classify_train,12,8,baa.png,,0,1,0,NA,NA,,Tannet,Tannet,0.681080507,1,NA,full,NA,NA,classify,1
433,4264,1,2,16,inference_test,NA,1,_ba.png,0,1,1,0,1,0,Tannet,1,1,9.126650612,1,NA,full,1,9.126650612,classify,
434,4264,1,2,16,inference_test,NA,2,__a.png,0,1,NaN,0,1,0,Tannet,1,1,9.358461351,1,NA,partial,1,9.358461351,classify,
435,4264,1,2,16,inference_test,NA,3,ab_.png,0,0,1,1,0,0,Lape,0,0,3.623741204,1,NA,full,1,3.623741204,classify,
436,4264,1,2,16,inference_test,NA,4,a__.png,0,0,NaN,1,0,0,Lape,0,0,2.778109984,1,NA,partial,1,2.778109984,classify,
437,4264,1,2,16,inference_test,NA,5,bb_.png,0,1,1,1,0,0,Tannet,0,0,1.872037373,1,NA,full,1,1.872037373,classify,
438,4264,1,2,16,inference_test,NA,6,b__.png,1,1,NaN,1,0,0,Lape,1,1,1.889202482,1,NA,partial,1,1.889202482,classify,
439,4264,1,2,16,inference_test,NA,7,aa_.png,0,0,0,1,0,0,Lape,0,0,2.221614238,1,NA,full,1,2.221614238,classify,
440,4264,1,2,16,inference_test,NA,8,_ba.png,0,0,1,0,1,0,Lape,0,0,1.76988465,1,NA,full,1,1.76988465,classify,
441,4264,1,2,16,inference_test,NA,9,_aa.png,0,1,0,0,1,0,Tannet,1,1,1.750829155,1,NA,full,1,1.750829155,classify,
442,4264,1,2,16,inference_test,NA,10,_bb.png,1,0,1,0,1,0,Tannet,0,0,1.334261422,1,NA,full,1,1.334261422,classify,
443,4264,1,2,16,inference_test,NA,11,ab_.png,1,0,1,1,0,0,Tannet,1,1,3.07545159,1,NA,full,1,3.07545159,classify,
444,4264,1,2,16,inference_test,NA,12,__b.png,1,1,NaN,0,1,0,Lape,1,1,2.252995319,1,NA,partial,1,2.252995319,classify,
445,4264,1,2,16,inference_test,NA,13,_ab.png,1,1,0,0,1,0,Lape,1,1,1.248903344,1,NA,full,1,1.248903344,classify,
446,4264,1,2,16,inference_test,NA,14,_bb.png,1,1,1,0,1,0,Lape,1,1,2.950918145,1,NA,full,1,2.950918145,classify,
447,4264,1,2,16,inference_test,NA,15,__b.png,1,0,NaN,0,1,0,Tannet,0,0,1.428534775,1,NA,partial,1,1.428534775,classify,
448,4264,1,2,16,inference_test,NA,16,a__.png,1,0,NaN,1,0,0,Tannet,1,1,5.371903954,1,NA,partial,1,5.371903954,classify,
449,4264,1,2,16,inference_test,NA,17,aa_.png,1,0,0,1,0,0,Tannet,1,1,1.176822005,1,NA,full,1,1.176822005,classify,
450,4264,1,2,16,inference_test,NA,18,ba_.png,1,1,0,1,0,0,Lape,1,1,1.761105111,1,NA,full,1,1.761105111,classify,
451,4264,1,2,16,inference_test,NA,19,_aa.png,0,0,0,0,1,0,Lape,0,0,1.409124377,1,NA,full,1,1.409124377,classify,
452,4264,1,2,16,inference_test,NA,20,_ab.png,1,0,0,0,1,0,Tannet,0,0,2.472290772,1,NA,full,1,2.472290772,classify,
453,4264,1,2,16,inference_test,NA,21,bb_.png,1,1,1,1,0,0,Lape,1,1,3.312113108,1,NA,full,1,3.312113108,classify,
454,4264,1,2,16,inference_test,NA,22,b__.png,0,1,NaN,1,0,0,Tannet,0,0,0.959408994,1,NA,partial,1,0.959408994,classify,
455,4264,1,2,16,inference_test,NA,23,__a.png,0,0,NaN,0,1,0,Lape,0,0,1.412957459,1,NA,partial,1,1.412957459,classify,
456,4264,1,2,16,inference_test,NA,24,ba_.png,0,1,0,1,0,0,Tannet,0,0,2.087203108,1,NA,full,1,2.087203108,classify,
457,4264,1,2,16,classify_test,NA,1,bba.png,0,1,1,NA,NA,NA,Tannet,Tannet,2.738779346,1,NA,NA,full,1,2.738779346,classify,
458,4264,1,2,16,classify_test,NA,2,b_a.png,0,1,NaN,NA,NA,NA,Tannet,Tannet,4.195506375,1,NA,NA,partial,1,4.195506375,classify,
459,4264,1,2,16,classify_test,NA,3,aba.png,0,0,1,NA,NA,NA,Lape,Lape,0.393064036,1,NA,NA,full,1,0.393064036,classify,
460,4264,1,2,16,classify_test,NA,4,aab.png,1,0,0,NA,NA,NA,Tannet,Tannet,0.076696068,1,NA,NA,full,1,0.076696068,classify,
461,4264,1,2,16,classify_test,NA,5,a_a.png,0,0,NaN,NA,NA,NA,Lape,Lape,0.009077829,1,NA,NA,partial,1,0.009077829,classify,
462,4264,1,2,16,classify_test,NA,6,aaa.png,0,0,0,NA,NA,NA,Lape,Lape,0.827853971,1,NA,NA,full,1,0.827853971,classify,
463,4264,1,2,16,classify_test,NA,7,bbb.png,1,1,1,NA,NA,NA,Lape,Lape,0.000120508,1,NA,NA,full,1,0.000120508,classify,
464,4264,1,2,16,classify_test,NA,8,a_b.png,1,0,NaN,NA,NA,NA,Tannet,Tannet,0.253733927,1,NA,NA,partial,1,0.253733927,classify,
465,4264,1,2,16,classify_test,NA,9,b_b.png,1,1,NaN,NA,NA,NA,Lape,Lape,0.406148425,1,NA,NA,partial,1,0.406148425,classify,
466,4264,1,2,16,classify_test,NA,10,baa.png,0,1,0,NA,NA,NA,Tannet,Tannet,0.219731134,1,NA,NA,full,1,0.219731134,classify,
467,4264,1,2,16,classify_test,NA,11,abb.png,1,0,1,NA,NA,NA,Tannet,Tannet,0.347248809,1,NA,NA,full,1,0.347248809,classify,
468,4264,1,2,16,classify_test,NA,12,bab.png,1,1,0,NA,NA,NA,Lape,Lape,0.158032356,1,NA,NA,full,1,0.158032356,classify,
469,4264,1,2,16,switch_test,12,1,abb.png,1,1,1,1,0,1,Tannet,Lape,5.542063587,1,1,NA,full,1,5.542063587,classify,
470,4264,1,2,16,switch_test,12,2,baa.png,0,0,0,0,1,0,Tannet,Lape,2.565796052,1,1,NA,full,1,2.565796052,classify,
471,4264,1,2,16,switch_test,12,3,bab.png,0,1,0,1,1,0,Lape,Tannet,2.800812502,1,1,NA,full,1,2.800812502,classify,
472,4264,1,2,16,switch_test,12,4,aaa.png,1,1,0,0,0,0,Lape,Lape,2.808224407,0,2,NA,full,0,2.808224407,classify,
473,4264,1,2,16,switch_test,12,5,bba.png,0,0,1,0,1,1,Tannet,Lape,1.597877999,1,1,NA,full,1,1.597877999,classify,
474,4264,1,2,16,switch_test,12,6,bbb.png,0,1,1,1,1,1,Lape,Tannet,1.116637521,1,1,NA,full,1,1.116637521,classify,
475,4264,1,2,16,switch_test,12,7,aba.png,0,1,1,0,0,1,Lape,Tannet,0.567356035,1,1,NA,full,1,0.567356035,classify,
476,4264,1,2,16,switch_test,12,8,aab.png,0,0,0,1,0,0,Tannet,Lape,1.445340677,1,1,NA,full,1,1.445340677,classify,
477,4313,1,2,17,classify_train,1,1,abb.png,,0,0,1,NA,NA,,Lape,Tannet,2.251844865,0,NA,full,NA,NA,classify,1
478,4313,1,2,17,classify_train,1,1,abb.png,,0,0,1,NA,NA,,Lape,Lape,0.412570111,1,NA,full,NA,NA,classify,2
479,4313,1,2,17,classify_train,1,2,aba.png,,1,0,1,NA,NA,,Tannet,Lape,0.344225514,0,NA,full,NA,NA,classify,1
480,4313,1,2,17,classify_train,1,2,aba.png,,1,0,1,NA,NA,,Tannet,Tannet,0.752987043,1,NA,full,NA,NA,classify,2
481,4313,1,2,17,classify_train,1,3,baa.png,,1,1,0,NA,NA,,Lape,Tannet,0.394216807,0,NA,full,NA,NA,classify,1
482,4313,1,2,17,classify_train,1,3,baa.png,,1,1,0,NA,NA,,Lape,Lape,0.486230966,1,NA,full,NA,NA,classify,2
483,4313,1,2,17,classify_train,1,4,bab.png,,0,1,0,NA,NA,,Tannet,Lape,1.633272925,0,NA,full,NA,NA,classify,1
484,4313,1,2,17,classify_train,1,4,bab.png,,0,1,0,NA,NA,,Tannet,Tannet,1.314381903,1,NA,full,NA,NA,classify,2
485,4313,1,2,17,classify_train,1,5,aaa.png,,1,0,0,NA,NA,,Tannet,Tannet,4.385868648,1,NA,full,NA,NA,classify,1
486,4313,1,2,17,classify_train,1,6,aab.png,,0,0,0,NA,NA,,Lape,Lape,0.554790094,1,NA,full,NA,NA,classify,1
487,4313,1,2,17,classify_train,1,7,bbb.png,,0,1,1,NA,NA,,Tannet,Lape,1.986346177,0,NA,full,NA,NA,classify,1
488,4313,1,2,17,classify_train,1,7,bbb.png,,0,1,1,NA,NA,,Tannet,Tannet,0.278336764,1,NA,full,NA,NA,classify,2
489,4313,1,2,17,classify_train,1,8,bba.png,,1,1,1,NA,NA,,Lape,Lape,1.179406306,1,NA,full,NA,NA,classify,1
490,4313,1,2,17,classify_train,2,1,bbb.png,,0,1,1,NA,NA,,Tannet,Tannet,1.200282002,1,NA,full,NA,NA,classify,1
491,4313,1,2,17,classify_train,2,2,bab.png,,0,1,0,NA,NA,,Tannet,Lape,2.526087998,0,NA,full,NA,NA,classify,1
492,4313,1,2,17,classify_train,2,2,bab.png,,0,1,0,NA,NA,,Tannet,Tannet,0.359356553,1,NA,full,NA,NA,classify,2
493,4313,1,2,17,classify_train,2,3,aba.png,,1,0,1,NA,NA,,Tannet,Tannet,1.262143665,1,NA,full,NA,NA,classify,1
494,4313,1,2,17,classify_train,2,4,bba.png,,1,1,1,NA,NA,,Lape,Tannet,3.220029425,0,NA,full,NA,NA,classify,1
495,4313,1,2,17,classify_train,2,4,bba.png,,1,1,1,NA,NA,,Lape,Lape,0.76734107,1,NA,full,NA,NA,classify,2
496,4313,1,2,17,classify_train,2,5,abb.png,,0,0,1,NA,NA,,Lape,Lape,1.861627335,1,NA,full,NA,NA,classify,1
497,4313,1,2,17,classify_train,2,6,aab.png,,0,0,0,NA,NA,,Lape,Lape,3.692744623,1,NA,full,NA,NA,classify,1
498,4313,1,2,17,classify_train,2,7,aaa.png,,1,0,0,NA,NA,,Tannet,Tannet,0.749891907,1,NA,full,NA,NA,classify,1
499,4313,1,2,17,classify_train,2,8,baa.png,,1,1,0,NA,NA,,Lape,Lape,1.785044492,1,NA,full,NA,NA,classify,1
500,4313,1,2,17,classify_train,3,1,aaa.png,,1,0,0,NA,NA,,Tannet,Tannet,3.317805788,1,NA,full,NA,NA,classify,1
501,4313,1,2,17,classify_train,3,2,aab.png,,0,0,0,NA,NA,,Lape,Lape,0.68905092,1,NA,full,NA,NA,classify,1
502,4313,1,2,17,classify_train,3,3,bbb.png,,0,1,1,NA,NA,,Tannet,Tannet,1.68015617,1,NA,full,NA,NA,classify,1
503,4313,1,2,17,classify_train,3,4,abb.png,,0,0,1,NA,NA,,Lape,Lape,0.854123062,1,NA,full,NA,NA,classify,1
504,4313,1,2,17,classify_train,3,5,bba.png,,1,1,1,NA,NA,,Lape,Tannet,2.464844767,0,NA,full,NA,NA,classify,1
505,4313,1,2,17,classify_train,3,5,bba.png,,1,1,1,NA,NA,,Lape,Lape,0.043656677,1,NA,full,NA,NA,classify,2
506,4313,1,2,17,classify_train,3,6,aba.png,,1,0,1,NA,NA,,Tannet,Lape,1.334085295,0,NA,full,NA,NA,classify,1
507,4313,1,2,17,classify_train,3,6,aba.png,,1,0,1,NA,NA,,Tannet,Tannet,0.270059453,1,NA,full,NA,NA,classify,2
508,4313,1,2,17,classify_train,3,7,baa.png,,1,1,0,NA,NA,,Lape,Lape,0.923291021,1,NA,full,NA,NA,classify,1
509,4313,1,2,17,classify_train,3,8,bab.png,,0,1,0,NA,NA,,Tannet,Tannet,0.634422055,1,NA,full,NA,NA,classify,1
510,4313,1,2,17,classify_train,4,1,abb.png,,0,0,1,NA,NA,,Lape,Lape,2.056795361,1,NA,full,NA,NA,classify,1
511,4313,1,2,17,classify_train,4,2,aab.png,,0,0,0,NA,NA,,Lape,Tannet,0.611180231,0,NA,full,NA,NA,classify,1
512,4313,1,2,17,classify_train,4,2,aab.png,,0,0,0,NA,NA,,Lape,Lape,0.365855378,1,NA,full,NA,NA,classify,2
513,4313,1,2,17,classify_train,4,3,aba.png,,1,0,1,NA,NA,,Tannet,Lape,2.534723855,0,NA,full,NA,NA,classify,1
514,4313,1,2,17,classify_train,4,3,aba.png,,1,0,1,NA,NA,,Tannet,Tannet,0.44579821,1,NA,full,NA,NA,classify,2
515,4313,1,2,17,classify_train,4,4,bbb.png,,0,1,1,NA,NA,,Tannet,Lape,1.758611523,0,NA,full,NA,NA,classify,1
516,4313,1,2,17,classify_train,4,4,bbb.png,,0,1,1,NA,NA,,Tannet,Tannet,0.000192349,1,NA,full,NA,NA,classify,2
517,4313,1,2,17,classify_train,4,5,bba.png,,1,1,1,NA,NA,,Lape,Lape,2.182881506,1,NA,full,NA,NA,classify,1
518,4313,1,2,17,classify_train,4,6,baa.png,,1,1,0,NA,NA,,Lape,Lape,0.72531059,1,NA,full,NA,NA,classify,1
519,4313,1,2,17,classify_train,4,7,bab.png,,0,1,0,NA,NA,,Tannet,Tannet,0.60565507,1,NA,full,NA,NA,classify,1
520,4313,1,2,17,classify_train,4,8,aaa.png,,1,0,0,NA,NA,,Tannet,Lape,3.348822365,0,NA,full,NA,NA,classify,1
521,4313,1,2,17,classify_train,4,8,aaa.png,,1,0,0,NA,NA,,Tannet,Tannet,0.787959859,1,NA,full,NA,NA,classify,2
522,4313,1,2,17,classify_train,5,1,bab.png,,0,1,0,NA,NA,,Tannet,Lape,1.642303411,0,NA,full,NA,NA,classify,1
523,4313,1,2,17,classify_train,5,1,bab.png,,0,1,0,NA,NA,,Tannet,Tannet,0.00018937,1,NA,full,NA,NA,classify,2
524,4313,1,2,17,classify_train,5,2,bbb.png,,0,1,1,NA,NA,,Tannet,Lape,2.6866348,0,NA,full,NA,NA,classify,1
525,4313,1,2,17,classify_train,5,2,bbb.png,,0,1,1,NA,NA,,Tannet,Tannet,0.617061948,1,NA,full,NA,NA,classify,2
526,4313,1,2,17,classify_train,5,3,bba.png,,1,1,1,NA,NA,,Lape,Tannet,1.081847123,0,NA,full,NA,NA,classify,1
527,4313,1,2,17,classify_train,5,3,bba.png,,1,1,1,NA,NA,,Lape,Lape,0.890958125,1,NA,full,NA,NA,classify,2
528,4313,1,2,17,classify_train,5,4,aab.png,,0,0,0,NA,NA,,Lape,Lape,1.183815112,1,NA,full,NA,NA,classify,1
529,4313,1,2,17,classify_train,5,5,baa.png,,1,1,0,NA,NA,,Lape,Tannet,2.712944282,0,NA,full,NA,NA,classify,1
530,4313,1,2,17,classify_train,5,5,baa.png,,1,1,0,NA,NA,,Lape,Lape,0.392584652,1,NA,full,NA,NA,classify,2
531,4313,1,2,17,classify_train,5,6,aaa.png,,1,0,0,NA,NA,,Tannet,Lape,1.501245139,0,NA,full,NA,NA,classify,1
532,4313,1,2,17,classify_train,5,6,aaa.png,,1,0,0,NA,NA,,Tannet,Tannet,0.194508543,1,NA,full,NA,NA,classify,2
533,4313,1,2,17,classify_train,5,7,abb.png,,0,0,1,NA,NA,,Lape,Lape,3.277548827,1,NA,full,NA,NA,classify,1
534,4313,1,2,17,classify_train,5,8,aba.png,,1,0,1,NA,NA,,Tannet,Tannet,1.311955521,1,NA,full,NA,NA,classify,1
535,4313,1,2,17,classify_train,6,1,baa.png,,1,1,0,NA,NA,,Lape,Tannet,1.383503512,0,NA,full,NA,NA,classify,1
536,4313,1,2,17,classify_train,6,1,baa.png,,1,1,0,NA,NA,,Lape,Lape,0.171954011,1,NA,full,NA,NA,classify,2
537,4313,1,2,17,classify_train,6,2,bab.png,,0,1,0,NA,NA,,Tannet,Tannet,1.170642328,1,NA,full,NA,NA,classify,1
538,4313,1,2,17,classify_train,6,3,bbb.png,,0,1,1,NA,NA,,Tannet,Lape,3.142612627,0,NA,full,NA,NA,classify,1
539,4313,1,2,17,classify_train,6,3,bbb.png,,0,1,1,NA,NA,,Tannet,Tannet,0.087824188,1,NA,full,NA,NA,classify,2
540,4313,1,2,17,classify_train,6,4,aab.png,,0,0,0,NA,NA,,Lape,Lape,0.956123827,1,NA,full,NA,NA,classify,1
541,4313,1,2,17,classify_train,6,5,bba.png,,1,1,1,NA,NA,,Lape,Lape,4.6892436,1,NA,full,NA,NA,classify,1
542,4313,1,2,17,classify_train,6,6,aba.png,,1,0,1,NA,NA,,Tannet,Tannet,2.199307013,1,NA,full,NA,NA,classify,1
543,4313,1,2,17,classify_train,6,7,abb.png,,0,0,1,NA,NA,,Lape,Lape,0.741653331,1,NA,full,NA,NA,classify,1
544,4313,1,2,17,classify_train,6,8,aaa.png,,1,0,0,NA,NA,,Tannet,Tannet,4.196405219,1,NA,full,NA,NA,classify,1
545,4313,1,2,17,classify_train,7,1,aaa.png,,1,0,0,NA,NA,,Tannet,Tannet,0.230067676,1,NA,full,NA,NA,classify,1
546,4313,1,2,17,classify_train,7,2,aba.png,,1,0,1,NA,NA,,Tannet,Lape,0.917102404,0,NA,full,NA,NA,classify,1
547,4313,1,2,17,classify_train,7,2,aba.png,,1,0,1,NA,NA,,Tannet,Tannet,0.020726385,1,NA,full,NA,NA,classify,2
548,4313,1,2,17,classify_train,7,3,bab.png,,0,1,0,NA,NA,,Tannet,Lape,2.71507403,0,NA,full,NA,NA,classify,1
549,4313,1,2,17,classify_train,7,3,bab.png,,0,1,0,NA,NA,,Tannet,Tannet,1.631040878,1,NA,full,NA,NA,classify,2
550,4313,1,2,17,classify_train,7,4,aab.png,,0,0,0,NA,NA,,Lape,Lape,0.814857645,1,NA,full,NA,NA,classify,1
551,4313,1,2,17,classify_train,7,5,abb.png,,0,0,1,NA,NA,,Lape,Lape,0.577754154,1,NA,full,NA,NA,classify,1
552,4313,1,2,17,classify_train,7,6,bba.png,,1,1,1,NA,NA,,Lape,Lape,1.582165609,1,NA,full,NA,NA,classify,1
553,4313,1,2,17,classify_train,7,7,bbb.png,,0,1,1,NA,NA,,Tannet,Tannet,0.596533871,1,NA,full,NA,NA,classify,1
554,4313,1,2,17,classify_train,7,8,baa.png,,1,1,0,NA,NA,,Lape,Lape,2.684448441,1,NA,full,NA,NA,classify,1
555,4313,1,2,17,classify_train,8,1,bba.png,,1,1,1,NA,NA,,Lape,Tannet,0.634109859,0,NA,full,NA,NA,classify,1
556,4313,1,2,17,classify_train,8,1,bba.png,,1,1,1,NA,NA,,Lape,Lape,0.016896614,1,NA,full,NA,NA,classify,2
557,4313,1,2,17,classify_train,8,2,aaa.png,,1,0,0,NA,NA,,Tannet,Tannet,0.788774281,1,NA,full,NA,NA,classify,1
558,4313,1,2,17,classify_train,8,3,bbb.png,,0,1,1,NA,NA,,Tannet,Tannet,3.351475859,1,NA,full,NA,NA,classify,1
559,4313,1,2,17,classify_train,8,4,aba.png,,1,0,1,NA,NA,,Tannet,Lape,1.483562905,0,NA,full,NA,NA,classify,1
560,4313,1,2,17,classify_train,8,4,aba.png,,1,0,1,NA,NA,,Tannet,Tannet,0.373542399,1,NA,full,NA,NA,classify,2
561,4313,1,2,17,classify_train,8,5,baa.png,,1,1,0,NA,NA,,Lape,Tannet,3.624694343,0,NA,full,NA,NA,classify,1
562,4313,1,2,17,classify_train,8,5,baa.png,,1,1,0,NA,NA,,Lape,Lape,0.479008431,1,NA,full,NA,NA,classify,2
563,4313,1,2,17,classify_train,8,6,aab.png,,0,0,0,NA,NA,,Lape,Tannet,5.448116003,0,NA,full,NA,NA,classify,1
564,4313,1,2,17,classify_train,8,6,aab.png,,0,0,0,NA,NA,,Lape,Lape,0.594444515,1,NA,full,NA,NA,classify,2
565,4313,1,2,17,classify_train,8,7,bab.png,,0,1,0,NA,NA,,Tannet,Tannet,0.776182849,1,NA,full,NA,NA,classify,1
566,4313,1,2,17,classify_train,8,8,abb.png,,0,0,1,NA,NA,,Lape,Lape,3.441582416,1,NA,full,NA,NA,classify,1
567,4313,1,2,17,classify_train,9,1,abb.png,,0,0,1,NA,NA,,Lape,Lape,0.297624005,1,NA,full,NA,NA,classify,1
568,4313,1,2,17,classify_train,9,2,bab.png,,0,1,0,NA,NA,,Tannet,Lape,2.361209199,0,NA,full,NA,NA,classify,1
569,4313,1,2,17,classify_train,9,2,bab.png,,0,1,0,NA,NA,,Tannet,Tannet,0.816332544,1,NA,full,NA,NA,classify,2
570,4313,1,2,17,classify_train,9,3,baa.png,,1,1,0,NA,NA,,Lape,Lape,3.821037653,1,NA,full,NA,NA,classify,1
571,4313,1,2,17,classify_train,9,4,aab.png,,0,0,0,NA,NA,,Lape,Lape,3.853065969,1,NA,full,NA,NA,classify,1
572,4313,1,2,17,classify_train,9,5,aba.png,,1,0,1,NA,NA,,Tannet,Tannet,1.494641697,1,NA,full,NA,NA,classify,1
573,4313,1,2,17,classify_train,9,6,bba.png,,1,1,1,NA,NA,,Lape,Lape,0.835350629,1,NA,full,NA,NA,classify,1
574,4313,1,2,17,classify_train,9,7,aaa.png,,1,0,0,NA,NA,,Tannet,Tannet,2.3973669,1,NA,full,NA,NA,classify,1
575,4313,1,2,17,classify_train,9,8,bbb.png,,0,1,1,NA,NA,,Tannet,Tannet,1.328897822,1,NA,full,NA,NA,classify,1
576,4313,1,2,17,classify_train,10,1,bbb.png,,0,1,1,NA,NA,,Tannet,Tannet,0.457314009,1,NA,full,NA,NA,classify,1
577,4313,1,2,17,classify_train,10,2,aab.png,,0,0,0,NA,NA,,Lape,Tannet,3.176864713,0,NA,full,NA,NA,classify,1
578,4313,1,2,17,classify_train,10,2,aab.png,,0,0,0,NA,NA,,Lape,Lape,1.214378129,1,NA,full,NA,NA,classify,2
579,4313,1,2,17,classify_train,10,3,aba.png,,1,0,1,NA,NA,,Tannet,Tannet,2.518715822,1,NA,full,NA,NA,classify,1
580,4313,1,2,17,classify_train,10,4,abb.png,,0,0,1,NA,NA,,Lape,Lape,0.677499697,1,NA,full,NA,NA,classify,1
581,4313,1,2,17,classify_train,10,5,baa.png,,1,1,0,NA,NA,,Lape,Tannet,0.718737605,0,NA,full,NA,NA,classify,1
582,4313,1,2,17,classify_train,10,5,baa.png,,1,1,0,NA,NA,,Lape,Lape,0.120685134,1,NA,full,NA,NA,classify,2
583,4313,1,2,17,classify_train,10,6,bba.png,,1,1,1,NA,NA,,Lape,Lape,1.976610189,1,NA,full,NA,NA,classify,1
584,4313,1,2,17,classify_train,10,7,bab.png,,0,1,0,NA,NA,,Tannet,Lape,3.712973085,0,NA,full,NA,NA,classify,1
585,4313,1,2,17,classify_train,10,7,bab.png,,0,1,0,NA,NA,,Tannet,Tannet,0.000190694,1,NA,full,NA,NA,classify,2
586,4313,1,2,17,classify_train,10,8,aaa.png,,1,0,0,NA,NA,,Tannet,Tannet,1.251049645,1,NA,full,NA,NA,classify,1
587,4313,1,2,17,classify_train,11,1,baa.png,,1,1,0,NA,NA,,Lape,Tannet,0.346615479,0,NA,full,NA,NA,classify,1
588,4313,1,2,17,classify_train,11,1,baa.png,,1,1,0,NA,NA,,Lape,Lape,0.000119184,1,NA,full,NA,NA,classify,2
589,4313,1,2,17,classify_train,11,2,aab.png,,0,0,0,NA,NA,,Lape,Lape,1.381205583,1,NA,full,NA,NA,classify,1
590,4313,1,2,17,classify_train,11,3,bba.png,,1,1,1,NA,NA,,Lape,Lape,2.91079626,1,NA,full,NA,NA,classify,1
591,4313,1,2,17,classify_train,11,4,bab.png,,0,1,0,NA,NA,,Tannet,Tannet,0.991602843,1,NA,full,NA,NA,classify,1
592,4313,1,2,17,classify_train,11,5,abb.png,,0,0,1,NA,NA,,Lape,Lape,0.351201074,1,NA,full,NA,NA,classify,1
593,4313,1,2,17,classify_train,11,6,bbb.png,,0,1,1,NA,NA,,Tannet,Tannet,0.448300075,1,NA,full,NA,NA,classify,1
594,4313,1,2,17,classify_train,11,7,aba.png,,1,0,1,NA,NA,,Tannet,Lape,0.250736787,0,NA,full,NA,NA,classify,1
595,4313,1,2,17,classify_train,11,7,aba.png,,1,0,1,NA,NA,,Tannet,Tannet,0.805025317,1,NA,full,NA,NA,classify,2
596,4313,1,2,17,classify_train,11,8,aaa.png,,1,0,0,NA,NA,,Tannet,Tannet,1.111530498,1,NA,full,NA,NA,classify,1
597,4313,1,2,17,classify_train,12,1,bab.png,,0,1,0,NA,NA,,Tannet,Tannet,2.170700264,1,NA,full,NA,NA,classify,1
598,4313,1,2,17,classify_train,12,2,baa.png,,1,1,0,NA,NA,,Lape,Lape,0.923810463,1,NA,full,NA,NA,classify,1
599,4313,1,2,17,classify_train,12,3,abb.png,,0,0,1,NA,NA,,Lape,Lape,0.168561578,1,NA,full,NA,NA,classify,1
600,4313,1,2,17,classify_train,12,4,bba.png,,1,1,1,NA,NA,,Lape,Lape,4.041326303,1,NA,full,NA,NA,classify,1
601,4313,1,2,17,classify_train,12,5,aaa.png,,1,0,0,NA,NA,,Tannet,Tannet,0.614132677,1,NA,full,NA,NA,classify,1
602,4313,1,2,17,classify_train,12,6,aba.png,,1,0,1,NA,NA,,Tannet,Tannet,2.10004284,1,NA,full,NA,NA,classify,1
603,4313,1,2,17,classify_train,12,7,bbb.png,,0,1,1,NA,NA,,Tannet,Tannet,1.222885531,1,NA,full,NA,NA,classify,1
604,4313,1,2,17,classify_train,12,8,aab.png,,0,0,0,NA,NA,,Lape,Lape,0.62917797,1,NA,full,NA,NA,classify,1
605,4313,1,2,17,inference_test,NA,1,__a.png,1,1,NaN,0,1,0,Tannet,1,0,3.712104368,0,NA,partial,0,3.712104368,classify,
606,4313,1,2,17,inference_test,NA,2,aa_.png,1,0,0,1,0,0,Tannet,1,1,8.360011733,1,NA,full,1,8.360011733,classify,
607,4313,1,2,17,inference_test,NA,3,a__.png,1,0,NaN,1,0,0,Tannet,1,1,3.54479422,1,NA,partial,1,3.54479422,classify,
608,4313,1,2,17,inference_test,NA,4,_ba.png,1,1,1,0,1,0,Lape,1,1,3.766244248,1,NA,full,1,3.766244248,classify,
609,4313,1,2,17,inference_test,NA,5,b__.png,0,1,NaN,1,0,0,Tannet,0,0,1.818674835,1,NA,partial,1,1.818674835,classify,
610,4313,1,2,17,inference_test,NA,6,bb_.png,1,1,1,1,0,0,Lape,1,1,3.412999835,1,NA,full,1,3.412999835,classify,
611,4313,1,2,17,inference_test,NA,7,__b.png,0,1,NaN,0,1,0,Tannet,1,1,3.09974786,1,NA,partial,1,3.09974786,classify,
612,4313,1,2,17,inference_test,NA,8,__b.png,0,0,NaN,0,1,0,Lape,0,0,1.516995272,1,NA,partial,1,1.516995272,classify,
613,4313,1,2,17,inference_test,NA,9,ab_.png,1,0,1,1,0,0,Tannet,1,1,4.590499201,1,NA,full,1,4.590499201,classify,
614,4313,1,2,17,inference_test,NA,10,ab_.png,0,0,1,1,0,0,Lape,0,0,2.286108538,1,NA,full,1,2.286108538,classify,
615,4313,1,2,17,inference_test,NA,11,_ab.png,0,0,0,0,1,0,Lape,0,0,2.747186767,1,NA,full,1,2.747186767,classify,
616,4313,1,2,17,inference_test,NA,12,_bb.png,0,1,1,0,1,0,Tannet,1,1,1.085603728,1,NA,full,1,1.085603728,classify,
617,4313,1,2,17,inference_test,NA,13,__a.png,1,1,NaN,0,1,0,Lape,1,1,3.499506381,1,NA,partial,1,3.499506381,classify,
618,4313,1,2,17,inference_test,NA,14,_bb.png,0,0,1,0,1,0,Lape,0,0,16.66703702,1,NA,full,1,16.66703702,classify,
619,4313,1,2,17,inference_test,NA,15,a__.png,0,0,NaN,1,0,0,Lape,0,0,1.902927484,1,NA,partial,1,1.902927484,classify,
620,4313,1,2,17,inference_test,NA,16,b__.png,0,1,NaN,1,0,0,Lape,0,1,3.017588542,0,NA,partial,0,3.017588542,classify,
621,4313,1,2,17,inference_test,NA,17,_aa.png,1,1,0,0,1,0,Lape,1,1,4.089900303,1,NA,full,1,4.089900303,classify,
622,4313,1,2,17,inference_test,NA,18,_aa.png,1,0,0,0,1,0,Tannet,0,0,1.429584585,1,NA,full,1,1.429584585,classify,
623,4313,1,2,17,inference_test,NA,19,bb_.png,0,1,1,1,0,0,Tannet,0,0,3.582632081,1,NA,full,1,3.582632081,classify,
624,4313,1,2,17,inference_test,NA,20,ba_.png,1,1,0,1,0,0,Lape,1,1,2.020304938,1,NA,full,1,2.020304938,classify,
625,4313,1,2,17,inference_test,NA,21,_ba.png,1,0,1,0,1,0,Tannet,0,0,4.663683983,1,NA,full,1,4.663683983,classify,
626,4313,1,2,17,inference_test,NA,22,_ab.png,0,0,0,0,1,0,Tannet,0,1,3.860842709,0,NA,full,0,3.860842709,classify,
627,4313,1,2,17,inference_test,NA,23,aa_.png,0,0,0,1,0,0,Lape,0,0,1.842520855,1,NA,full,1,1.842520855,classify,
628,4313,1,2,17,inference_test,NA,24,ba_.png,0,1,0,1,0,0,Tannet,0,0,2.094825902,1,NA,full,1,2.094825902,classify,
629,4313,1,2,17,switch_test,12,1,aab.png,1,0,0,0,0,0,Lape,Tannet,7.184913588,1,1,NA,full,1,7.184913588,classify,
630,4313,1,2,17,switch_test,12,2,bbb.png,0,0,1,0,1,1,Tannet,Lape,1.898994751,1,1,NA,full,1,1.898994751,classify,
631,4313,1,2,17,switch_test,12,3,bba.png,1,0,1,1,1,1,Lape,Tannet,1.3533924,1,1,NA,full,1,1.3533924,classify,
632,4313,1,2,17,switch_test,12,4,aaa.png,0,0,0,1,0,0,Tannet,Lape,0.581056206,1,1,NA,full,1,0.581056206,classify,
633,4313,1,2,17,switch_test,12,5,abb.png,0,1,1,0,0,1,Lape,Tannet,0.268924227,1,1,NA,full,1,0.268924227,classify,
634,4313,1,2,17,switch_test,12,6,baa.png,0,1,0,1,1,0,Lape,Tannet,0.556113696,1,1,NA,full,1,0.556113696,classify,
635,4313,1,2,17,switch_test,12,7,aba.png,1,1,1,1,0,1,Tannet,Lape,0.353004722,1,1,NA,full,1,0.353004722,classify,
636,4313,1,2,17,switch_test,12,8,bab.png,1,1,0,0,1,0,Tannet,Lape,0.34942325,1,1,NA,full,1,0.34942325,classify,
637,4313,1,2,17,classify_test,NA,1,abb.png,0,0,1,NA,NA,NA,Lape,Lape,1.640134599,1,NA,NA,full,1,1.640134599,classify,
638,4313,1,2,17,classify_test,NA,2,bbb.png,0,1,1,NA,NA,NA,Tannet,Tannet,0.260539982,1,NA,NA,full,1,0.260539982,classify,
639,4313,1,2,17,classify_test,NA,3,aab.png,0,0,0,NA,NA,NA,Lape,Lape,0.166175586,1,NA,NA,full,1,0.166175586,classify,
640,4313,1,2,17,classify_test,NA,4,a_a.png,1,0,NaN,NA,NA,NA,Tannet,Tannet,1.37280975,1,NA,NA,partial,1,1.37280975,classify,
641,4313,1,2,17,classify_test,NA,5,bab.png,0,1,0,NA,NA,NA,Tannet,Tannet,0.218414485,1,NA,NA,full,1,0.218414485,classify,
642,4313,1,2,17,classify_test,NA,6,b_b.png,0,1,NaN,NA,NA,NA,Tannet,Tannet,0.457960912,1,NA,NA,partial,1,0.457960912,classify,
643,4313,1,2,17,classify_test,NA,7,aba.png,1,0,1,NA,NA,NA,Tannet,Tannet,0.136463076,1,NA,NA,full,1,0.136463076,classify,
644,4313,1,2,17,classify_test,NA,8,a_b.png,0,0,NaN,NA,NA,NA,Lape,Lape,0.590244942,1,NA,NA,partial,1,0.590244942,classify,
645,4313,1,2,17,classify_test,NA,9,bba.png,1,1,1,NA,NA,NA,Lape,Lape,0.575920049,1,NA,NA,full,1,0.575920049,classify,
646,4313,1,2,17,classify_test,NA,10,baa.png,1,1,0,NA,NA,NA,Lape,Lape,0.38508369,1,NA,NA,full,1,0.38508369,classify,
647,4313,1,2,17,classify_test,NA,11,aaa.png,1,0,0,NA,NA,NA,Tannet,Tannet,0.005482452,1,NA,NA,full,1,0.005482452,classify,
648,4313,1,2,17,classify_test,NA,12,b_a.png,1,1,NaN,NA,NA,NA,Lape,Lape,0.2318359,1,NA,NA,partial,1,0.2318359,classify,
649,4319,1,2,23,classify_train,1,1,abb.png,,0,0,0,NA,NA,,Lape,Lape,1.86026235,1,NA,full,NA,NA,classify,1
650,4319,1,2,23,classify_train,1,2,baa.png,,1,1,1,NA,NA,,Lape,Tannet,0.995264101,0,NA,full,NA,NA,classify,1
651,4319,1,2,23,classify_train,1,2,baa.png,,1,1,1,NA,NA,,Lape,Lape,0.000116204,1,NA,full,NA,NA,classify,2
652,4319,1,2,23,classify_train,1,3,bba.png,,1,0,1,NA,NA,,Tannet,Lape,0.751280398,0,NA,full,NA,NA,classify,1
653,4319,1,2,23,classify_train,1,3,bba.png,,1,0,1,NA,NA,,Tannet,Tannet,0.287229196,1,NA,full,NA,NA,classify,2
654,4319,1,2,23,classify_train,1,4,aba.png,,1,0,0,NA,NA,,Tannet,Lape,0.875201371,0,NA,full,NA,NA,classify,1
655,4319,1,2,23,classify_train,1,4,aba.png,,1,0,0,NA,NA,,Tannet,Tannet,0.998281768,1,NA,full,NA,NA,classify,2
656,4319,1,2,23,classify_train,1,5,bab.png,,0,1,1,NA,NA,,Tannet,Tannet,1.367123361,1,NA,full,NA,NA,classify,1
657,4319,1,2,23,classify_train,1,6,aaa.png,,1,1,0,NA,NA,,Lape,Lape,1.157025253,1,NA,full,NA,NA,classify,1
658,4319,1,2,23,classify_train,1,7,bbb.png,,0,0,1,NA,NA,,Lape,Tannet,0.58625626,0,NA,full,NA,NA,classify,1
659,4319,1,2,23,classify_train,1,7,bbb.png,,0,0,1,NA,NA,,Lape,Lape,0.032170343,1,NA,full,NA,NA,classify,2
660,4319,1,2,23,classify_train,1,8,aab.png,,0,1,0,NA,NA,,Tannet,Tannet,2.711679279,1,NA,full,NA,NA,classify,1
661,4319,1,2,23,classify_train,2,1,bba.png,,1,0,1,NA,NA,,Tannet,Lape,0.517301839,0,NA,full,NA,NA,classify,1
662,4319,1,2,23,classify_train,2,1,bba.png,,1,0,1,NA,NA,,Tannet,Tannet,0.387716327,1,NA,full,NA,NA,classify,2
663,4319,1,2,23,classify_train,2,2,bbb.png,,0,0,1,NA,NA,,Lape,Tannet,1.091683093,0,NA,full,NA,NA,classify,1
664,4319,1,2,23,classify_train,2,2,bbb.png,,0,0,1,NA,NA,,Lape,Lape,0.146438756,1,NA,full,NA,NA,classify,2
665,4319,1,2,23,classify_train,2,3,aba.png,,1,0,0,NA,NA,,Tannet,Lape,0.614045937,0,NA,full,NA,NA,classify,1
666,4319,1,2,23,classify_train,2,3,aba.png,,1,0,0,NA,NA,,Tannet,Tannet,0.945209574,1,NA,full,NA,NA,classify,2
667,4319,1,2,23,classify_train,2,4,aaa.png,,1,1,0,NA,NA,,Lape,Lape,1.42990605,1,NA,full,NA,NA,classify,1
668,4319,1,2,23,classify_train,2,5,baa.png,,1,1,1,NA,NA,,Lape,Tannet,1.503471558,0,NA,full,NA,NA,classify,1
669,4319,1,2,23,classify_train,2,5,baa.png,,1,1,1,NA,NA,,Lape,Lape,0.960698496,1,NA,full,NA,NA,classify,2
670,4319,1,2,23,classify_train,2,6,abb.png,,0,0,0,NA,NA,,Lape,Lape,0.333010654,1,NA,full,NA,NA,classify,1
671,4319,1,2,23,classify_train,2,7,aab.png,,0,1,0,NA,NA,,Tannet,Tannet,1.330201891,1,NA,full,NA,NA,classify,1
672,4319,1,2,23,classify_train,2,8,bab.png,,0,1,1,NA,NA,,Tannet,Tannet,0.357446634,1,NA,full,NA,NA,classify,1
673,4319,1,2,23,classify_train,3,1,bab.png,,0,1,1,NA,NA,,Tannet,Tannet,0.753336648,1,NA,full,NA,NA,classify,1
674,4319,1,2,23,classify_train,3,2,aba.png,,1,0,0,NA,NA,,Tannet,Lape,0.378969233,0,NA,full,NA,NA,classify,1
675,4319,1,2,23,classify_train,3,2,aba.png,,1,0,0,NA,NA,,Tannet,Tannet,0.000183079,1,NA,full,NA,NA,classify,2
676,4319,1,2,23,classify_train,3,3,abb.png,,0,0,0,NA,NA,,Lape,Lape,0.680561726,1,NA,full,NA,NA,classify,1
677,4319,1,2,23,classify_train,3,4,baa.png,,1,1,1,NA,NA,,Lape,Tannet,0.34923388,0,NA,full,NA,NA,classify,1
678,4319,1,2,23,classify_train,3,4,baa.png,,1,1,1,NA,NA,,Lape,Lape,1.182020072,1,NA,full,NA,NA,classify,2
679,4319,1,2,23,classify_train,3,5,aaa.png,,1,1,0,NA,NA,,Lape,Tannet,1.787227872,0,NA,full,NA,NA,classify,1
680,4319,1,2,23,classify_train,3,5,aaa.png,,1,1,0,NA,NA,,Lape,Lape,0.839945824,1,NA,full,NA,NA,classify,2
681,4319,1,2,23,classify_train,3,6,bba.png,,1,0,1,NA,NA,,Tannet,Lape,1.223578452,0,NA,full,NA,NA,classify,1
682,4319,1,2,23,classify_train,3,6,bba.png,,1,0,1,NA,NA,,Tannet,Tannet,0.857119872,1,NA,full,NA,NA,classify,2
683,4319,1,2,23,classify_train,3,7,bbb.png,,0,0,1,NA,NA,,Lape,Lape,1.192297353,1,NA,full,NA,NA,classify,1
684,4319,1,2,23,classify_train,3,8,aab.png,,0,1,0,NA,NA,,Tannet,Lape,1.070290272,0,NA,full,NA,NA,classify,1
685,4319,1,2,23,classify_train,3,8,aab.png,,0,1,0,NA,NA,,Tannet,Tannet,0.632676344,1,NA,full,NA,NA,classify,2
686,4319,1,2,23,classify_train,4,1,baa.png,,1,1,1,NA,NA,,Lape,Tannet,0.492542739,0,NA,full,NA,NA,classify,1
687,4319,1,2,23,classify_train,4,1,baa.png,,1,1,1,NA,NA,,Lape,Lape,0.000120839,1,NA,full,NA,NA,classify,2
688,4319,1,2,23,classify_train,4,2,abb.png,,0,0,0,NA,NA,,Lape,Lape,0.970541419,1,NA,full,NA,NA,classify,1
689,4319,1,2,23,classify_train,4,3,aba.png,,1,0,0,NA,NA,,Tannet,Lape,1.07285802,0,NA,full,NA,NA,classify,1
690,4319,1,2,23,classify_train,4,3,aba.png,,1,0,0,NA,NA,,Tannet,Tannet,0.00018937,1,NA,full,NA,NA,classify,2
691,4319,1,2,23,classify_train,4,4,aaa.png,,1,1,0,NA,NA,,Lape,Tannet,3.439966151,0,NA,full,NA,NA,classify,1
692,4319,1,2,23,classify_train,4,4,aaa.png,,1,1,0,NA,NA,,Lape,Lape,0.000121501,1,NA,full,NA,NA,classify,2
693,4319,1,2,23,classify_train,4,5,bbb.png,,0,0,1,NA,NA,,Lape,Lape,0.219596391,1,NA,full,NA,NA,classify,1
694,4319,1,2,23,classify_train,4,6,bab.png,,0,1,1,NA,NA,,Tannet,Tannet,0.444328608,1,NA,full,NA,NA,classify,1
695,4319,1,2,23,classify_train,4,7,aab.png,,0,1,0,NA,NA,,Tannet,Tannet,1.59234357,1,NA,full,NA,NA,classify,1
696,4319,1,2,23,classify_train,4,8,bba.png,,1,0,1,NA,NA,,Tannet,Lape,1.230644063,0,NA,full,NA,NA,classify,1
697,4319,1,2,23,classify_train,4,8,bba.png,,1,0,1,NA,NA,,Tannet,Tannet,0.028999723,1,NA,full,NA,NA,classify,2
698,4319,1,2,23,classify_train,5,1,baa.png,,1,1,1,NA,NA,,Lape,Tannet,0.160674593,0,NA,full,NA,NA,classify,1
699,4319,1,2,23,classify_train,5,1,baa.png,,1,1,1,NA,NA,,Lape,Lape,0.174984589,1,NA,full,NA,NA,classify,2
700,4319,1,2,23,classify_train,5,2,aba.png,,1,0,0,NA,NA,,Tannet,Lape,1.336191867,0,NA,full,NA,NA,classify,1
701,4319,1,2,23,classify_train,5,2,aba.png,,1,0,0,NA,NA,,Tannet,Tannet,0.000197315,1,NA,full,NA,NA,classify,2
702,4319,1,2,23,classify_train,5,3,bbb.png,,0,0,1,NA,NA,,Lape,Tannet,0.49908063,0,NA,full,NA,NA,classify,1
703,4319,1,2,23,classify_train,5,3,bbb.png,,0,0,1,NA,NA,,Lape,Lape,0.000133419,1,NA,full,NA,NA,classify,2
704,4319,1,2,23,classify_train,5,4,aab.png,,0,1,0,NA,NA,,Tannet,Tannet,0.209411477,1,NA,full,NA,NA,classify,1
705,4319,1,2,23,classify_train,5,5,bab.png,,0,1,1,NA,NA,,Tannet,Lape,0.403696551,0,NA,full,NA,NA,classify,1
706,4319,1,2,23,classify_train,5,5,bab.png,,0,1,1,NA,NA,,Tannet,Tannet,0.97607618,1,NA,full,NA,NA,classify,2
707,4319,1,2,23,classify_train,5,6,aaa.png,,1,1,0,NA,NA,,Lape,Lape,0.614866319,1,NA,full,NA,NA,classify,1
708,4319,1,2,23,classify_train,5,7,bba.png,,1,0,1,NA,NA,,Tannet,Tannet,0.36451721,1,NA,full,NA,NA,classify,1
709,4319,1,2,23,classify_train,5,8,abb.png,,0,0,0,NA,NA,,Lape,Tannet,0.517617676,0,NA,full,NA,NA,classify,1
710,4319,1,2,23,classify_train,5,8,abb.png,,0,0,0,NA,NA,,Lape,Lape,0.91235823,1,NA,full,NA,NA,classify,2
711,4319,1,2,23,classify_train,6,1,bba.png,,1,0,1,NA,NA,,Tannet,Lape,0.623223086,0,NA,full,NA,NA,classify,1
712,4319,1,2,23,classify_train,6,1,bba.png,,1,0,1,NA,NA,,Tannet,Tannet,0.800402974,1,NA,full,NA,NA,classify,2
713,4319,1,2,23,classify_train,6,2,abb.png,,0,0,0,NA,NA,,Lape,Lape,0.149096554,1,NA,full,NA,NA,classify,1
714,4319,1,2,23,classify_train,6,3,bab.png,,0,1,1,NA,NA,,Tannet,Tannet,0.319137335,1,NA,full,NA,NA,classify,1
715,4319,1,2,23,classify_train,6,4,aaa.png,,1,1,0,NA,NA,,Lape,Tannet,0.204768277,0,NA,full,NA,NA,classify,1
716,4319,1,2,23,classify_train,6,4,aaa.png,,1,1,0,NA,NA,,Lape,Lape,0.579427693,1,NA,full,NA,NA,classify,2
717,4319,1,2,23,classify_train,6,5,bbb.png,,0,0,1,NA,NA,,Lape,Lape,0.668245079,1,NA,full,NA,NA,classify,1
718,4319,1,2,23,classify_train,6,6,baa.png,,1,1,1,NA,NA,,Lape,Lape,0.263015031,1,NA,full,NA,NA,classify,1
719,4319,1,2,23,classify_train,6,7,aba.png,,1,0,0,NA,NA,,Tannet,Lape,0.083395519,0,NA,full,NA,NA,classify,1
720,4319,1,2,23,classify_train,6,7,aba.png,,1,0,0,NA,NA,,Tannet,Tannet,0.019375967,1,NA,full,NA,NA,classify,2
721,4319,1,2,23,classify_train,6,8,aab.png,,0,1,0,NA,NA,,Tannet,Lape,0.381726019,0,NA,full,NA,NA,classify,1
722,4319,1,2,23,classify_train,6,8,aab.png,,0,1,0,NA,NA,,Tannet,Tannet,0.735375988,1,NA,full,NA,NA,classify,2
723,4319,1,2,23,classify_train,7,1,bbb.png,,0,0,1,NA,NA,,Lape,Lape,0.188552997,1,NA,full,NA,NA,classify,1
724,4319,1,2,23,classify_train,7,2,aaa.png,,1,1,0,NA,NA,,Lape,Tannet,0.238857809,0,NA,full,NA,NA,classify,1
725,4319,1,2,23,classify_train,7,2,aaa.png,,1,1,0,NA,NA,,Lape,Lape,0.614097252,1,NA,full,NA,NA,classify,2
726,4319,1,2,23,classify_train,7,3,baa.png,,1,1,1,NA,NA,,Lape,Lape,0.198018173,1,NA,full,NA,NA,classify,1
727,4319,1,2,23,classify_train,7,4,bba.png,,1,0,1,NA,NA,,Tannet,Lape,0.496044424,0,NA,full,NA,NA,classify,1
728,4319,1,2,23,classify_train,7,4,bba.png,,1,0,1,NA,NA,,Tannet,Tannet,0.21121976,1,NA,full,NA,NA,classify,2
729,4319,1,2,23,classify_train,7,5,abb.png,,0,0,0,NA,NA,,Lape,Lape,0.960717698,1,NA,full,NA,NA,classify,1
730,4319,1,2,23,classify_train,7,6,aba.png,,1,0,0,NA,NA,,Tannet,Tannet,0.295433342,1,NA,full,NA,NA,classify,1
731,4319,1,2,23,classify_train,7,7,bab.png,,0,1,1,NA,NA,,Tannet,Tannet,0.186339159,1,NA,full,NA,NA,classify,1
732,4319,1,2,23,classify_train,7,8,aab.png,,0,1,0,NA,NA,,Tannet,Tannet,0.817131075,1,NA,full,NA,NA,classify,1
733,4319,1,2,23,classify_train,8,1,aba.png,,1,0,0,NA,NA,,Tannet,Tannet,0.65149314,1,NA,full,NA,NA,classify,1
734,4319,1,2,23,classify_train,8,2,abb.png,,0,0,0,NA,NA,,Lape,Tannet,0.842686389,0,NA,full,NA,NA,classify,1
735,4319,1,2,23,classify_train,8,2,abb.png,,0,0,0,NA,NA,,Lape,Lape,0.000122163,1,NA,full,NA,NA,classify,2
736,4319,1,2,23,classify_train,8,3,bba.png,,1,0,1,NA,NA,,Tannet,Tannet,1.311325171,1,NA,full,NA,NA,classify,1
737,4319,1,2,23,classify_train,8,4,bbb.png,,0,0,1,NA,NA,,Lape,Tannet,2.454459227,0,NA,full,NA,NA,classify,1
738,4319,1,2,23,classify_train,8,4,bbb.png,,0,0,1,NA,NA,,Lape,Lape,0.878881831,1,NA,full,NA,NA,classify,2
739,4319,1,2,23,classify_train,8,5,baa.png,,1,1,1,NA,NA,,Lape,Lape,0.791715803,1,NA,full,NA,NA,classify,1
740,4319,1,2,23,classify_train,8,6,aaa.png,,1,1,0,NA,NA,,Lape,Tannet,2.157936347,0,NA,full,NA,NA,classify,1
741,4319,1,2,23,classify_train,8,6,aaa.png,,1,1,0,NA,NA,,Lape,Lape,0.000124481,1,NA,full,NA,NA,classify,2
742,4319,1,2,23,classify_train,8,7,bab.png,,0,1,1,NA,NA,,Tannet,Lape,0.117952516,0,NA,full,NA,NA,classify,1
743,4319,1,2,23,classify_train,8,7,bab.png,,0,1,1,NA,NA,,Tannet,Tannet,0.097110589,1,NA,full,NA,NA,classify,2
744,4319,1,2,23,classify_train,8,8,aab.png,,0,1,0,NA,NA,,Tannet,Tannet,0.905966338,1,NA,full,NA,NA,classify,1
745,4319,1,2,23,classify_train,9,1,baa.png,,1,1,1,NA,NA,,Lape,Tannet,2.263413634,0,NA,full,NA,NA,classify,1
746,4319,1,2,23,classify_train,9,1,baa.png,,1,1,1,NA,NA,,Lape,Lape,0.122253063,1,NA,full,NA,NA,classify,2
747,4319,1,2,23,classify_train,9,2,aaa.png,,1,1,0,NA,NA,,Lape,Lape,1.719907924,1,NA,full,NA,NA,classify,1
748,4319,1,2,23,classify_train,9,3,bba.png,,1,0,1,NA,NA,,Tannet,Lape,0.650153648,0,NA,full,NA,NA,classify,1
749,4319,1,2,23,classify_train,9,3,bba.png,,1,0,1,NA,NA,,Tannet,Tannet,0.520577737,1,NA,full,NA,NA,classify,2
750,4319,1,2,23,classify_train,9,4,bbb.png,,0,0,1,NA,NA,,Lape,Lape,2.144133213,1,NA,full,NA,NA,classify,1
751,4319,1,2,23,classify_train,9,5,aab.png,,0,1,0,NA,NA,,Tannet,Tannet,3.284943848,1,NA,full,NA,NA,classify,1
752,4319,1,2,23,classify_train,9,6,abb.png,,0,0,0,NA,NA,,Lape,Lape,1.449250235,1,NA,full,NA,NA,classify,1
753,4319,1,2,23,classify_train,9,7,aba.png,,1,0,0,NA,NA,,Tannet,Lape,0.951215111,0,NA,full,NA,NA,classify,1
754,4319,1,2,23,classify_train,9,7,aba.png,,1,0,0,NA,NA,,Tannet,Tannet,0.404765562,1,NA,full,NA,NA,classify,2
755,4319,1,2,23,classify_train,9,8,bab.png,,0,1,1,NA,NA,,Tannet,Tannet,1.333526455,1,NA,full,NA,NA,classify,1
756,4319,1,2,23,classify_train,10,1,bbb.png,,0,0,1,NA,NA,,Lape,Tannet,0.239529873,0,NA,full,NA,NA,classify,1
757,4319,1,2,23,classify_train,10,1,bbb.png,,0,0,1,NA,NA,,Lape,Lape,0.851458975,1,NA,full,NA,NA,classify,2
758,4319,1,2,23,classify_train,10,2,aab.png,,0,1,0,NA,NA,,Tannet,Lape,0.799901409,0,NA,full,NA,NA,classify,1
759,4319,1,2,23,classify_train,10,2,aab.png,,0,1,0,NA,NA,,Tannet,Tannet,0.678664718,1,NA,full,NA,NA,classify,2
760,4319,1,2,23,classify_train,10,3,bab.png,,0,1,1,NA,NA,,Tannet,Lape,0.077454209,0,NA,full,NA,NA,classify,1
761,4319,1,2,23,classify_train,10,3,bab.png,,0,1,1,NA,NA,,Tannet,Tannet,0.334210437,1,NA,full,NA,NA,classify,2
762,4319,1,2,23,classify_train,10,4,aaa.png,,1,1,0,NA,NA,,Lape,Tannet,0.000179107,0,NA,full,NA,NA,classify,1
763,4319,1,2,23,classify_train,10,4,aaa.png,,1,1,0,NA,NA,,Lape,Lape,0.47179351,1,NA,full,NA,NA,classify,2
764,4319,1,2,23,classify_train,10,5,aba.png,,1,0,0,NA,NA,,Tannet,Lape,0.043759307,0,NA,full,NA,NA,classify,1
765,4319,1,2,23,classify_train,10,5,aba.png,,1,0,0,NA,NA,,Tannet,Tannet,0.752891365,1,NA,full,NA,NA,classify,2
766,4319,1,2,23,classify_train,10,6,abb.png,,0,0,0,NA,NA,,Lape,Tannet,1.405699499,0,NA,full,NA,NA,classify,1
767,4319,1,2,23,classify_train,10,6,abb.png,,0,0,0,NA,NA,,Lape,Lape,1.010804338,1,NA,full,NA,NA,classify,2
768,4319,1,2,23,classify_train,10,7,bba.png,,1,0,1,NA,NA,,Tannet,Lape,0.152802838,0,NA,full,NA,NA,classify,1
769,4319,1,2,23,classify_train,10,7,bba.png,,1,0,1,NA,NA,,Tannet,Tannet,0.000195329,1,NA,full,NA,NA,classify,2
770,4319,1,2,23,classify_train,10,8,baa.png,,1,1,1,NA,NA,,Lape,Tannet,0.03395512,0,NA,full,NA,NA,classify,1
771,4319,1,2,23,classify_train,10,8,baa.png,,1,1,1,NA,NA,,Lape,Lape,0.74485507,1,NA,full,NA,NA,classify,2
772,4319,1,2,23,classify_train,11,1,aba.png,,1,0,0,NA,NA,,Tannet,Tannet,1.060831386,1,NA,full,NA,NA,classify,1
773,4319,1,2,23,classify_train,11,2,aab.png,,0,1,0,NA,NA,,Tannet,Lape,0.621887566,0,NA,full,NA,NA,classify,1
774,4319,1,2,23,classify_train,11,2,aab.png,,0,1,0,NA,NA,,Tannet,Tannet,0.815445618,1,NA,full,NA,NA,classify,2
775,4319,1,2,23,classify_train,11,3,abb.png,,0,0,0,NA,NA,,Lape,Lape,0.355795276,1,NA,full,NA,NA,classify,1
776,4319,1,2,23,classify_train,11,4,aaa.png,,1,1,0,NA,NA,,Lape,Tannet,0.37940624,0,NA,full,NA,NA,classify,1
777,4319,1,2,23,classify_train,11,4,aaa.png,,1,1,0,NA,NA,,Lape,Lape,0.573788646,1,NA,full,NA,NA,classify,2
778,4319,1,2,23,classify_train,11,5,bab.png,,0,1,1,NA,NA,,Tannet,Tannet,1.42657354,1,NA,full,NA,NA,classify,1
779,4319,1,2,23,classify_train,11,6,bba.png,,1,0,1,NA,NA,,Tannet,Tannet,0.804532359,1,NA,full,NA,NA,classify,1
780,4319,1,2,23,classify_train,11,7,baa.png,,1,1,1,NA,NA,,Lape,Lape,0.623729617,1,NA,full,NA,NA,classify,1
781,4319,1,2,23,classify_train,11,8,bbb.png,,0,0,1,NA,NA,,Lape,Lape,0.227249312,1,NA,full,NA,NA,classify,1
782,4319,1,2,23,classify_train,12,1,bbb.png,,0,0,1,NA,NA,,Lape,Tannet,0.192517843,0,NA,full,NA,NA,classify,1
783,4319,1,2,23,classify_train,12,1,bbb.png,,0,0,1,NA,NA,,Lape,Lape,0.148796278,1,NA,full,NA,NA,classify,2
784,4319,1,2,23,classify_train,12,2,baa.png,,1,1,1,NA,NA,,Lape,Lape,0.616410079,1,NA,full,NA,NA,classify,1
785,4319,1,2,23,classify_train,12,3,aab.png,,0,1,0,NA,NA,,Tannet,Lape,0.000120177,0,NA,full,NA,NA,classify,1
786,4319,1,2,23,classify_train,12,3,aab.png,,0,1,0,NA,NA,,Tannet,Tannet,0.837117859,1,NA,full,NA,NA,classify,2
787,4319,1,2,23,classify_train,12,4,aba.png,,1,0,0,NA,NA,,Tannet,Tannet,5.825442486,1,NA,full,NA,NA,classify,1
788,4319,1,2,23,classify_train,12,5,aaa.png,,1,1,0,NA,NA,,Lape,Lape,0.000117529,1,NA,full,NA,NA,classify,1
789,4319,1,2,23,classify_train,12,6,bab.png,,0,1,1,NA,NA,,Tannet,Lape,0.124288787,0,NA,full,NA,NA,classify,1
790,4319,1,2,23,classify_train,12,6,bab.png,,0,1,1,NA,NA,,Tannet,Tannet,2.373406331,1,NA,full,NA,NA,classify,2
791,4319,1,2,23,classify_train,12,7,bba.png,,1,0,1,NA,NA,,Tannet,Lape,0.229016542,0,NA,full,NA,NA,classify,1
792,4319,1,2,23,classify_train,12,7,bba.png,,1,0,1,NA,NA,,Tannet,Tannet,0.415604662,1,NA,full,NA,NA,classify,2
793,4319,1,2,23,classify_train,12,8,abb.png,,0,0,0,NA,NA,,Lape,Lape,0.016017303,1,NA,full,NA,NA,classify,1
794,4319,1,2,23,inference_test,NA,1,b_a.png,1,0,1,0,1,0,Tannet,0,0,2.590328371,1,NA,full,1,2.590328371,classify,
795,4319,1,2,23,inference_test,NA,2,__a.png,1,0,NaN,0,1,0,Tannet,0,0,1.880971189,1,NA,partial,1,1.880971189,classify,
796,4319,1,2,23,inference_test,NA,3,ba_.png,0,1,1,1,0,0,Lape,0,1,1.622878116,0,NA,full,0,1.622878116,classify,
797,4319,1,2,23,inference_test,NA,4,aa_.png,0,1,0,1,0,0,Tannet,0,0,0.754874781,1,NA,full,1,0.754874781,classify,
798,4319,1,2,23,inference_test,NA,5,a_a.png,1,1,0,0,1,0,Lape,1,1,0.146878743,1,NA,full,1,0.146878743,classify,
799,4319,1,2,23,inference_test,NA,6,a_a.png,1,0,0,0,1,0,Tannet,0,0,0.000195991,1,NA,full,1,0.000195991,classify,
800,4319,1,2,23,inference_test,NA,7,a_b.png,0,1,0,0,1,0,Tannet,1,1,0.306474061,1,NA,full,1,0.306474061,classify,
801,4319,1,2,23,inference_test,NA,8,ba_.png,0,1,1,1,0,0,Tannet,0,0,0.000186059,1,NA,full,1,0.000186059,classify,
802,4319,1,2,23,inference_test,NA,9,_b_.png,1,0,NaN,1,0,0,Tannet,1,1,0.779147545,1,NA,partial,1,0.779147545,classify,
803,4319,1,2,23,inference_test,NA,10,ab_.png,0,0,0,1,0,0,Lape,0,0,0.00018639,1,NA,full,1,0.00018639,classify,
804,4319,1,2,23,inference_test,NA,11,b_b.png,0,0,1,0,1,0,Lape,0,0,0.019947718,1,NA,full,1,0.019947718,classify,
805,4319,1,2,23,inference_test,NA,12,b_b.png,0,1,1,0,1,0,Tannet,1,1,0.055159564,1,NA,full,1,0.055159564,classify,
806,4319,1,2,23,inference_test,NA,13,_a_.png,1,1,NaN,1,0,0,Lape,1,1,0.339501865,1,NA,partial,1,0.339501865,classify,
807,4319,1,2,23,inference_test,NA,14,bb_.png,1,0,1,1,0,0,Lape,1,0,0.000188046,0,NA,full,0,0.000188046,classify,
808,4319,1,2,23,inference_test,NA,15,_b_.png,0,0,NaN,1,0,0,Lape,0,0,0.238574417,1,NA,partial,1,0.238574417,classify,
809,4319,1,2,23,inference_test,NA,16,__b.png,0,0,NaN,0,1,0,Tannet,0,1,0.055013895,0,NA,partial,0,0.055013895,classify,
810,4319,1,2,23,inference_test,NA,17,a_b.png,0,0,0,0,1,0,Lape,0,0,0.030625589,1,NA,full,1,0.030625589,classify,
811,4319,1,2,23,inference_test,NA,18,__b.png,0,1,NaN,0,1,0,Lape,1,0,0.18620607,0,NA,partial,0,0.18620607,classify,
812,4319,1,2,23,inference_test,NA,19,aa_.png,0,1,0,1,0,0,Lape,0,1,0.638903695,0,NA,full,0,0.638903695,classify,
813,4319,1,2,23,inference_test,NA,20,__a.png,1,1,NaN,0,1,0,Lape,1,1,0.178521698,1,NA,partial,1,0.178521698,classify,
814,4319,1,2,23,inference_test,NA,21,bb_.png,1,0,1,1,0,0,Tannet,1,1,5.70752407,1,NA,full,1,5.70752407,classify,
815,4319,1,2,23,inference_test,NA,22,ab_.png,0,0,0,1,0,0,Tannet,0,1,1.123150251,0,NA,full,0,1.123150251,classify,
816,4319,1,2,23,inference_test,NA,23,_a_.png,1,1,NaN,1,0,0,Tannet,1,0,0.000189039,0,NA,partial,0,0.000189039,classify,
817,4319,1,2,23,inference_test,NA,24,b_a.png,1,0,1,0,1,0,Lape,0,1,0.81678776,0,NA,full,0,0.81678776,classify,
818,4319,1,2,23,switch_test,12,1,aba.png,1,1,0,1,0,0,Tannet,Lape,3.532123331,1,1,NA,full,1,3.532123331,classify,
819,4319,1,2,23,switch_test,12,2,bbb.png,0,1,1,0,0,1,Lape,Tannet,1.155801633,1,1,NA,full,1,1.155801633,classify,
820,4319,1,2,23,switch_test,12,3,bab.png,1,1,1,0,1,1,Tannet,Lape,1.112332671,1,1,NA,full,1,1.112332671,classify,
821,4319,1,2,23,switch_test,12,4,bba.png,0,0,0,1,0,1,Tannet,Lape,0.517307136,1,2,NA,full,1,0.517307136,classify,
822,4319,1,2,23,switch_test,12,5,aab.png,0,0,1,0,1,0,Tannet,Lape,0.403194323,1,2,NA,full,1,0.403194323,classify,
823,4319,1,2,23,switch_test,12,6,abb.png,1,0,1,0,0,0,Lape,Tannet,0.215583871,1,2,NA,full,1,0.215583871,classify,
824,4319,1,2,23,switch_test,12,7,aaa.png,0,1,0,1,1,0,Lape,Tannet,0.854858691,1,1,NA,full,1,0.854858691,classify,
825,4319,1,2,23,switch_test,12,8,baa.png,1,0,1,1,1,1,Lape,Tannet,0.638662016,1,1,NA,full,1,0.638662016,classify,
826,4319,1,2,23,classify_test,NA,1,abb.png,0,0,0,NA,NA,NA,Lape,Lape,1.226982472,1,NA,NA,full,1,1.226982472,classify,
827,4319,1,2,23,classify_test,NA,2,_aa.png,1,1,NaN,NA,NA,NA,Lape,Tannet,1.0929087,0,NA,NA,partial,0,1.0929087,classify,
828,4319,1,2,23,classify_test,NA,3,bab.png,0,1,1,NA,NA,NA,Tannet,Lape,0.035703479,0,NA,NA,full,0,0.035703479,classify,
829,4319,1,2,23,classify_test,NA,4,baa.png,1,1,1,NA,NA,NA,Lape,Lape,0.487271838,1,NA,NA,full,1,0.487271838,classify,
830,4319,1,2,23,classify_test,NA,5,_ba.png,1,0,NaN,NA,NA,NA,Tannet,Tannet,0.405302552,1,NA,NA,partial,1,0.405302552,classify,
831,4319,1,2,23,classify_test,NA,6,aaa.png,1,1,0,NA,NA,NA,Lape,Lape,0.00012117,1,NA,NA,full,1,0.00012117,classify,
832,4319,1,2,23,classify_test,NA,7,bbb.png,0,0,1,NA,NA,NA,Lape,Tannet,0.148057338,0,NA,NA,full,0,0.148057338,classify,
833,4319,1,2,23,classify_test,NA,8,_bb.png,0,0,NaN,NA,NA,NA,Lape,Lape,0.529964781,1,NA,NA,partial,1,0.529964781,classify,
834,4319,1,2,23,classify_test,NA,9,bba.png,1,0,1,NA,NA,NA,Tannet,Tannet,0.000190694,1,NA,NA,full,1,0.000190694,classify,
835,4319,1,2,23,classify_test,NA,10,_ab.png,0,1,NaN,NA,NA,NA,Tannet,Lape,2.347929149,0,NA,NA,partial,0,2.347929149,classify,
836,4319,1,2,23,classify_test,NA,11,aab.png,0,1,0,NA,NA,NA,Tannet,Lape,1.130225463,0,NA,NA,full,0,1.130225463,classify,
837,4319,1,2,23,classify_test,NA,12,aba.png,1,0,0,NA,NA,NA,Tannet,Tannet,0.529477121,1,NA,NA,full,1,0.529477121,classify,
838,4365,1,2,21,classify_train,1,1,bbb.png,,0,1,1,NA,NA,,Tannet,Lape,4.360122309,0,NA,full,NA,NA,classify,1
839,4365,1,2,21,classify_train,1,1,bbb.png,,0,1,1,NA,NA,,Tannet,Tannet,0.679346052,1,NA,full,NA,NA,classify,2
840,4365,1,2,21,classify_train,1,2,baa.png,,1,0,1,NA,NA,,Tannet,Lape,1.38331017,0,NA,full,NA,NA,classify,1
841,4365,1,2,21,classify_train,1,2,baa.png,,1,0,1,NA,NA,,Tannet,Tannet,0.000189039,1,NA,full,NA,NA,classify,2
842,4365,1,2,21,classify_train,1,3,aaa.png,,1,0,0,NA,NA,,Tannet,Lape,0.515238967,0,NA,full,NA,NA,classify,1
843,4365,1,2,21,classify_train,1,3,aaa.png,,1,0,0,NA,NA,,Tannet,Tannet,0.974404959,1,NA,full,NA,NA,classify,2
844,4365,1,2,21,classify_train,1,4,bba.png,,1,1,1,NA,NA,,Lape,Lape,1.553519794,1,NA,full,NA,NA,classify,1
845,4365,1,2,21,classify_train,1,5,abb.png,,0,1,0,NA,NA,,Tannet,Lape,0.37199897,0,NA,full,NA,NA,classify,1
846,4365,1,2,21,classify_train,1,5,abb.png,,0,1,0,NA,NA,,Tannet,Tannet,1.947496579,1,NA,full,NA,NA,classify,2
847,4365,1,2,21,classify_train,1,6,bab.png,,0,0,1,NA,NA,,Lape,Tannet,4.179791667,0,NA,full,NA,NA,classify,1
848,4365,1,2,21,classify_train,1,6,bab.png,,0,0,1,NA,NA,,Lape,Lape,1.033019858,1,NA,full,NA,NA,classify,2
849,4365,1,2,21,classify_train,1,7,aab.png,,0,0,0,NA,NA,,Lape,Lape,1.468188533,1,NA,full,NA,NA,classify,1
850,4365,1,2,21,classify_train,1,8,aba.png,,1,1,0,NA,NA,,Lape,Tannet,1.862942991,0,NA,full,NA,NA,classify,1
851,4365,1,2,21,classify_train,1,8,aba.png,,1,1,0,NA,NA,,Lape,Lape,0.525305359,1,NA,full,NA,NA,classify,2
852,4365,1,2,21,classify_train,2,1,bab.png,,0,0,1,NA,NA,,Lape,Lape,3.699122278,1,NA,full,NA,NA,classify,1
853,4365,1,2,21,classify_train,2,2,bbb.png,,0,1,1,NA,NA,,Tannet,Lape,1.868365521,0,NA,full,NA,NA,classify,1
854,4365,1,2,21,classify_train,2,2,bbb.png,,0,1,1,NA,NA,,Tannet,Tannet,0.032853,1,NA,full,NA,NA,classify,2
855,4365,1,2,21,classify_train,2,3,aab.png,,0,0,0,NA,NA,,Lape,Tannet,1.863077073,0,NA,full,NA,NA,classify,1
856,4365,1,2,21,classify_train,2,3,aab.png,,0,0,0,NA,NA,,Lape,Lape,0.345847738,1,NA,full,NA,NA,classify,2
857,4365,1,2,21,classify_train,2,4,baa.png,,1,0,1,NA,NA,,Tannet,Lape,3.232641384,0,NA,full,NA,NA,classify,1
858,4365,1,2,21,classify_train,2,4,baa.png,,1,0,1,NA,NA,,Tannet,Tannet,0.936200939,1,NA,full,NA,NA,classify,2
859,4365,1,2,21,classify_train,2,5,abb.png,,0,1,0,NA,NA,,Tannet,Lape,4.446880464,0,NA,full,NA,NA,classify,1
860,4365,1,2,21,classify_train,2,5,abb.png,,0,1,0,NA,NA,,Tannet,Tannet,0.314567631,1,NA,full,NA,NA,classify,2
861,4365,1,2,21,classify_train,2,6,bba.png,,1,1,1,NA,NA,,Lape,Tannet,1.304567783,0,NA,full,NA,NA,classify,1
862,4365,1,2,21,classify_train,2,6,bba.png,,1,1,1,NA,NA,,Lape,Lape,0.11763072,1,NA,full,NA,NA,classify,2
863,4365,1,2,21,classify_train,2,7,aaa.png,,1,0,0,NA,NA,,Tannet,Lape,1.627180649,0,NA,full,NA,NA,classify,1
864,4365,1,2,21,classify_train,2,7,aaa.png,,1,0,0,NA,NA,,Tannet,Tannet,0.836004484,1,NA,full,NA,NA,classify,2
865,4365,1,2,21,classify_train,2,8,aba.png,,1,1,0,NA,NA,,Lape,Lape,1.481923798,1,NA,full,NA,NA,classify,1
866,4365,1,2,21,classify_train,3,1,bbb.png,,0,1,1,NA,NA,,Tannet,Tannet,0.336768584,1,NA,full,NA,NA,classify,1
867,4365,1,2,21,classify_train,3,2,aab.png,,0,0,0,NA,NA,,Lape,Lape,0.263560959,1,NA,full,NA,NA,classify,1
868,4365,1,2,21,classify_train,3,3,baa.png,,1,0,1,NA,NA,,Tannet,Tannet,0.224762013,1,NA,full,NA,NA,classify,1
869,4365,1,2,21,classify_train,3,4,aba.png,,1,1,0,NA,NA,,Lape,Lape,0.102191127,1,NA,full,NA,NA,classify,1
870,4365,1,2,21,classify_train,3,5,bba.png,,1,1,1,NA,NA,,Lape,Tannet,0.097428743,0,NA,full,NA,NA,classify,1
871,4365,1,2,21,classify_train,3,5,bba.png,,1,1,1,NA,NA,,Lape,Lape,0.985057337,1,NA,full,NA,NA,classify,2
872,4365,1,2,21,classify_train,3,6,aaa.png,,1,0,0,NA,NA,,Tannet,Tannet,1.304647902,1,NA,full,NA,NA,classify,1
873,4365,1,2,21,classify_train,3,7,bab.png,,0,0,1,NA,NA,,Lape,Lape,0.581375354,1,NA,full,NA,NA,classify,1
874,4365,1,2,21,classify_train,3,8,abb.png,,0,1,0,NA,NA,,Tannet,Tannet,1.738179124,1,NA,full,NA,NA,classify,1
875,4365,1,2,21,classify_train,4,1,aab.png,,0,0,0,NA,NA,,Lape,Lape,1.311243067,1,NA,full,NA,NA,classify,1
876,4365,1,2,21,classify_train,4,2,baa.png,,1,0,1,NA,NA,,Tannet,Lape,1.648868781,0,NA,full,NA,NA,classify,1
877,4365,1,2,21,classify_train,4,2,baa.png,,1,0,1,NA,NA,,Tannet,Tannet,1.064007302,1,NA,full,NA,NA,classify,2
878,4365,1,2,21,classify_train,4,3,aaa.png,,1,0,0,NA,NA,,Tannet,Lape,0.156759407,0,NA,full,NA,NA,classify,1
879,4365,1,2,21,classify_train,4,3,aaa.png,,1,0,0,NA,NA,,Tannet,Tannet,0.278785359,1,NA,full,NA,NA,classify,2
880,4365,1,2,21,classify_train,4,4,bbb.png,,0,1,1,NA,NA,,Tannet,Lape,1.534740077,0,NA,full,NA,NA,classify,1
881,4365,1,2,21,classify_train,4,4,bbb.png,,0,1,1,NA,NA,,Tannet,Tannet,0.137941617,1,NA,full,NA,NA,classify,2
882,4365,1,2,21,classify_train,4,5,bba.png,,1,1,1,NA,NA,,Lape,Tannet,0.039118093,0,NA,full,NA,NA,classify,1
883,4365,1,2,21,classify_train,4,5,bba.png,,1,1,1,NA,NA,,Lape,Lape,0.000126467,1,NA,full,NA,NA,classify,2
884,4365,1,2,21,classify_train,4,6,bab.png,,0,0,1,NA,NA,,Lape,Lape,2.26466374,1,NA,full,NA,NA,classify,1
885,4365,1,2,21,classify_train,4,7,abb.png,,0,1,0,NA,NA,,Tannet,Lape,2.504667037,0,NA,full,NA,NA,classify,1
886,4365,1,2,21,classify_train,4,7,abb.png,,0,1,0,NA,NA,,Tannet,Tannet,0.204998368,1,NA,full,NA,NA,classify,2
887,4365,1,2,21,classify_train,4,8,aba.png,,1,1,0,NA,NA,,Lape,Lape,3.496869109,1,NA,full,NA,NA,classify,1
888,4365,1,2,21,classify_train,5,1,bba.png,,1,1,1,NA,NA,,Lape,Tannet,5.099181075,0,NA,full,NA,NA,classify,1
889,4365,1,2,21,classify_train,5,1,bba.png,,1,1,1,NA,NA,,Lape,Lape,0.109962238,1,NA,full,NA,NA,classify,2
890,4365,1,2,21,classify_train,5,2,aaa.png,,1,0,0,NA,NA,,Tannet,Lape,1.701525817,0,NA,full,NA,NA,classify,1
891,4365,1,2,21,classify_train,5,2,aaa.png,,1,0,0,NA,NA,,Tannet,Tannet,0.031550256,1,NA,full,NA,NA,classify,2
892,4365,1,2,21,classify_train,5,3,bbb.png,,0,1,1,NA,NA,,Tannet,Lape,1.361900134,0,NA,full,NA,NA,classify,1
893,4365,1,2,21,classify_train,5,3,bbb.png,,0,1,1,NA,NA,,Tannet,Tannet,0.786701146,1,NA,full,NA,NA,classify,2
894,4365,1,2,21,classify_train,5,4,bab.png,,0,0,1,NA,NA,,Lape,Lape,0.372640907,1,NA,full,NA,NA,classify,1
895,4365,1,2,21,classify_train,5,5,aab.png,,0,0,0,NA,NA,,Lape,Tannet,0.976644951,0,NA,full,NA,NA,classify,1
896,4365,1,2,21,classify_train,5,5,aab.png,,0,0,0,NA,NA,,Lape,Lape,0.560983345,1,NA,full,NA,NA,classify,2
897,4365,1,2,21,classify_train,5,6,abb.png,,0,1,0,NA,NA,,Tannet,Lape,8.564761801,0,NA,full,NA,NA,classify,1
898,4365,1,2,21,classify_train,5,6,abb.png,,0,1,0,NA,NA,,Tannet,Tannet,0.99450265,1,NA,full,NA,NA,classify,2
899,4365,1,2,21,classify_train,5,7,baa.png,,1,0,1,NA,NA,,Tannet,Lape,1.595656216,0,NA,full,NA,NA,classify,1
900,4365,1,2,21,classify_train,5,7,baa.png,,1,0,1,NA,NA,,Tannet,Tannet,0.566427063,1,NA,full,NA,NA,classify,2
901,4365,1,2,21,classify_train,5,8,aba.png,,1,1,0,NA,NA,,Lape,Tannet,0.348852492,0,NA,full,NA,NA,classify,1
